workerid,proliferate.condition,blank_location,category,internal_node_id,nameType,names,pronouns,response,rt,sentence,stimID,stimType,stimulus,success,time_elapsed,trial_index,trial_type,word_count,error
3864,Pilot,,irb,0.0-0.0,,,,0,33757,,,,"<div style=""max-width: 1000px; margin: 0 auto; text-align: left;""><h2 style=""text-align: center;"">Consent to Participate</h2><p>By completing this study, you are participating in research being performed by cognitive scientists in the Stanford University Department of Linguistics and the University of Southern California Department of Linguistics. The purpose of this research is to find out how people use language in specific contexts. You must be at least 18 years old to participate. There are neither specific benefits nor anticipated risks associated with participation in this study. Your participation in this study is completely voluntary and you can withdraw at any time by simply exiting the study. You may decline to answer any or all of the questions following the study. Choosing not to participate or withdrawing will result in no penalty. Your anonymity is assured; the researchers who have requested your participation will not receive any personal information about you, and any information you provide will not be shared in association with any personally identifying information.</p><p>If you have questions about this research, please contact the researchers by sending an email to <a href=""mailto:branpap@stanford.edu"" style=""color: blue;"">branpap@stanford.edu</a>. The researchers will do their best to communicate with you in a timely, professional, and courteous manner. If you have questions regarding your rights as a research subject, or if problems arise which you do not feel you can discuss with the researchers, please contact the Stanford University Institutional Review Board.</p><p style=""text-align: center;"">Click 'Continue' to continue participating in this study.</p></div>",,33761,0,html-button-response,,
3864,Pilot,,,0.0-1.0,,,,,3029,,,,,True,37801,1,fullscreen,,
3864,Pilot,,gameData,0.0-2.0,,"['Andrew', 'Fransco', 'Enuaran', 'Bret', 'Tom', 'Cordon', 'Jarga', 'Alex', 'Ben', 'Migual', 'Sam', 'Felix']","[None, None, None, None, None, None, None, None, None, None, None, None]",,,,,,,,364925,2,madlibs,,
3864,Pilot,,instructions,0.0-3.0,,,,0,66789,,,,"<div style=""max-width: 1000px; margin: 0 auto; text-align: left;"">
    <h2 style=""text-align: center;"">Instructions</h2>
    <p>In this experiment, you will read a series of 48 sentences that appear one word at a time in the center of the screen. Each trial will begin with a black '+' in the middle. Focus on this '+' and continue watching as the words replace it. The words are presented quickly, and you will not be able to review the sentence after it has passed.</p>
    <p>After each sentence, you will be asked to fill in a missing word that best completes the sentence. Please read carefully and do your best to understand the meaning of each sentence.</p>
    <p>The experiment will take about 10-15 minutes to complete.</p>
    <p>When you are ready, press 'Begin' to start.</p>
  </div>",,431717,3,html-button-response,,
3864,Pilot,4,practice,0.0-4.0,,,,sentence,68852,This is a practice sentence to help you get used to the task.,,,,,507063,4,rsvp,,
3864,Pilot,,instructions,0.0-5.0,,,,0,7791,,,,"<div style=""max-width: 1000px; margin: 0 auto; text-align: left;"">
    <h2 style=""text-align: center;"">End of Practice</h2>
    <p>You have completed the practice trial. The main experiment will now begin. Remember to read each sentence carefully and fill in the missing word after each sentence.</p>
    <p>When you are ready, press 'Continue' to start the main experiment.</p>
  </div>",,514856,5,html-button-response,,
3864,Pilot,4,,0.0-6.0-0.0,weName,,,that,12621,It was no secret Angel despised the baker.,targ_21,symm,,,530975,6,rsvp,8,
3864,Pilot,1,,0.0-6.0-0.1,filler,,,package,15328,The message Nancy sent to her mom wasn't delivered.,fill_17,center_embedding,,,550284,7,rsvp,9,
3864,Pilot,4,,0.0-6.0-0.2,filler,,,blue,13873,While Jorge drove the dusty car veered into a ditch.,fill_05,garden_path,,,567825,8,rsvp,10,
3864,Pilot,5,,0.0-6.0-0.3,filler,,,boy,9391,While Kara bathed the baby cried.,fill_01,garden_path,,,582858,9,rsvp,6,
3864,Pilot,3,,0.0-6.0-0.4,weName,,,I,6964,Everyone laughed when Jake told the joke at recess.,targ_11,nonreverse,,,612945,10,rsvp,9,
3864,Pilot,4,,0.0-6.0-0.5,youName,,,Felix,5407,"To hide the gold, Felix buried the treasure.",targ_15,nonreverse,,,622192,11,rsvp,8,
3864,Pilot,3,,0.0-6.0-0.6,youName,,,Sam,4231,It was wild Sam won the race yesterday.,targ_10,nonreverse,,,629994,12,rsvp,8,
3864,Pilot,3,,0.0-6.0-0.7,weName,,,Drevon,4370,"Wanting good photos, Devon met the photographer in-person.",targ_24,symm,,,637791,13,rsvp,8,
3864,Pilot,10,,0.0-6.0-0.8,filler,,,motorcycle.,9026,"After the weekend is over, Marisa can finally ride her motorcycle.",fill_23,temporal_words,,,650822,14,rsvp,11,
3864,Pilot,1,,0.0-6.0-0.9,filler,,,rumor,7011,"The rumor about Eduardo spread quickly, and the one about Malik did too.",fill_11,vp_ellip,,,661686,15,rsvp,13,
3864,Pilot,9,,0.0-6.0-0.10,filler,,,month.,32985,"Grant vacuums weekly, and Joel usually does so every month.",fill_09,vp_ellip,,,698417,16,rsvp,10,
3864,Pilot,1,,0.0-6.0-0.11,filler,,,rusty,5652,The rusty pipes the plumber tried to repair burst.,fill_14,center_embedding,,,707868,17,rsvp,9,
3864,Pilot,4,,0.0-6.0-0.12,weName,,,Andrian,6804,"To help with studying, Adrian quizzed the student.",targ_03,reverse_bias,,,718057,18,rsvp,8,
3864,Pilot,12,,0.0-6.0-0.13,filler,,,influencer,10763,"The scandal about the actor was leaked, and the one about the influencer was too.",fill_12,vp_ellip,,,733141,19,rsvp,15,
3864,Pilot,11,,0.0-6.0-0.14,filler,,,green,6016,The laptop the officer pulled out of the bag had a green cover.,fill_18,center_embedding,,,743237,20,rsvp,13,
3864,Pilot,4,,0.0-6.0-0.15,youName,,,Miguel,7772,It was rumored that Migual ruined the food.,targ_02,reverse_bias,,,782323,21,rsvp,8,
3864,Pilot,4,,0.0-6.0-0.16,weName,,,Dominique,8934,No one was surprised Dominique caught the fish.,targ_08,reverse_bias,,,794512,22,rsvp,8,
3864,Pilot,5,,0.0-6.0-0.17,youName,,,Ben,57356,"Even though it was dark, Ben saw the driver last night.",targ_19,symm,,,855716,23,rsvp,11,
3864,Pilot,3,,0.0-6.0-0.18,weName,,,Daisy,8826,No one knew Daisy loved the puppy so much.,targ_20,symm,,,868013,24,rsvp,9,
3864,Pilot,1,,0.0-6.0-0.19,filler,,,blue,112691,The greeting cards the kids made were covered in glitter.,fill_13,center_embedding,,,995046,25,rsvp,10,
3864,Pilot,4,,0.0-6.0-0.20,filler,,,dear,189061,While Ricardo hunted the deer ran away.,fill_02,garden_path,,,1198681,26,rsvp,7,
3864,Pilot,2,,0.0-6.0-0.21,youName,,,Alex,7458,Everyone knew Alex hit the red ball that broke the window.,targ_07,reverse_bias,,,1209898,27,rsvp,11,
3864,Pilot,2,,0.0-6.0-0.22,youName,,,Jarga,4717,"Feeling bad, Jarga fed the tabby cat some food.",targ_05,reverse_bias,,,1218155,28,rsvp,9,
3864,Pilot,5,,0.0-6.0-0.23,weName,,,Miguel,8009,"Yesterday afternoon, the dog bit Miguel on the leg.",targ_01,reverse_bias,,,1229646,29,rsvp,9,
3864,Pilot,1,,0.0-6.0-0.24,weName,,,Drevon,7362,"Reluctantly, Gabriela hugged the judge even though they were in court.",targ_18,symm,,,1240795,30,rsvp,10,
3864,Pilot,1,,0.0-6.0-0.25,filler,,,long,5701,"Before today, Francisco had never considered running this red light.",fill_22,temporal_words,,,1250066,31,rsvp,10,
3864,Pilot,2,,0.0-6.0-0.26,youName,,,Cordon,4925,"This morning, Cordon flew the plane in an emergency.",targ_14,nonreverse,,,1258431,32,rsvp,9,
3864,Pilot,3,,0.0-6.0-0.27,filler,,,the,4593,"The girl bought two stuffed animals, and the boy did too.",fill_10,vp_ellip,,,1266994,33,rsvp,11,
3864,Pilot,2,,0.0-6.0-0.28,filler,,,mother,6731,While the mother calms down the children sit on the bed.,fill_06,garden_path,,,1277483,34,rsvp,11,
3864,Pilot,4,,0.0-6.0-0.29,youName,,,Tom,5646,"To win the game, Tom chose the player with the blue tee.",targ_23,symm,,,1286912,35,rsvp,12,
3864,Pilot,4,,0.0-6.0-0.30,youName,,,Brewit,5210,"To meet the deadline, Bret reviewed the paper quickly.",targ_09,nonreverse,,,1295390,36,rsvp,9,
3864,Pilot,6,,0.0-6.0-0.31,weName,,,Alejandro,8017,People are going to dance whenever Alejandro plays music.,targ_12,nonreverse,,,1306792,37,rsvp,9,
3864,Pilot,2,,0.0-6.0-0.32,youName,,,Eudanra,8829,"Last week, Enuaran accidentally kissed the neighbor at the party.",targ_17,symm,,,1319098,38,rsvp,10,
3864,Pilot,8,,0.0-6.0-0.33,filler,,,sister,4614,"The neighbor goes out with friends, and his sister does too.",fill_07,vp_ellip,,,1327892,39,rsvp,11,
3864,Pilot,9,,0.0-6.0-0.34,filler,,,hat,10666,While the student read the notes blew off the desk.,fill_03,garden_path,,,1364699,40,rsvp,10,
3864,Pilot,4,,0.0-6.0-0.35,weName,,,Carly,4470,It was revealed that Carly typed the mysterious letter.,targ_13,nonreverse,,,1372510,41,rsvp,9,
3864,Pilot,3,,0.0-6.0-0.36,filler,,,Thurdays,27735,"Vincent works on Tuesdays, and Summer does on Thursdays too.",fill_08,vp_ellip,,,1407378,42,rsvp,10,
3864,Pilot,2,,0.0-6.0-0.37,youName,,,Francisco,10971,It was Fransco who pursued the thief this morning.,targ_04,reverse_bias,,,1421806,43,rsvp,9,
3864,Pilot,8,,0.0-6.0-0.38,filler,,,play,4173,"After next Friday, Adriana will prepare for the poetry contest.",fill_21,temporal_words,,,1429920,44,rsvp,10,
3864,Pilot,3,,0.0-6.0-0.39,filler,,,coyote,12745,The squirrel the coyote chased found an acorn.,fill_15,center_embedding,,,1445898,45,rsvp,8,
3864,Pilot,6,,0.0-6.0-0.40,filler,,,two,4167,"Next month, the players will have two weeks of dress rehearsals.",fill_20,temporal_words,,,1453963,46,rsvp,11,
3864,Pilot,4,,0.0-6.0-0.41,filler,,,fish,11088,While Alec orders the fish cooks in a pot.,fill_04,garden_path,,,1468647,47,rsvp,9,
3864,Pilot,1,,0.0-6.0-0.42,filler,,,night,5666,"Last month, people argued where to build the new post office in the town.",fill_24,temporal_words,,,1496446,48,rsvp,14,
3864,Pilot,2,,0.0-6.0-0.43,weName,,,Katrina,4915,"Earlier today, Karina treated the tall patient at the hospital.",targ_06,reverse_bias,,,1504949,49,rsvp,10,
3864,Pilot,4,,0.0-6.0-0.44,filler,,,offer,14513,The assistant Oscar trained forgot the list of coffee orders. ,fill_16,center_embedding,,,1523088,50,rsvp,10,
3864,Pilot,4,,0.0-6.0-0.45,youName,,,Andrew,4458,It was nice of Andrew to thank the mean customer.,targ_22,symm,,,1531097,51,rsvp,10,
3864,Pilot,1,,0.0-6.0-0.46,filler,,,afternoon,5933,"Tomorrow afternoon, the soccer team will visit the history museum.",fill_19,temporal_words,,,1540702,52,rsvp,10,
3864,Pilot,4,,0.0-6.0-0.47,weName,,,Kendra,7320,"Coming home last night, Kendra pulled the wagon.",targ_16,nonreverse,,,1551292,53,rsvp,8,
3864,Pilot,,demoSurvey,0.0-7.0,,,,"{'age': '65', 'enjoy': 'Better than the average experiment', 'gender': 'Male', 'correct': 'Yes', 'payment': 'The payment was fair', 'comments': '', 'education': 'Hold a higher degree'}",26148,,,,,,1577443,54,survey-html-form,,
3864,Pilot,,,0.0-8.0,,,,,,,,,,True,1577445,55,fullscreen,,
3864,Pilot,,thanks,0.0-9.0,,,,0,1782,,,,Thank you for your time! Please click 'Continue' and then wait a moment until you're directed back to Prolific.<br><br>,,1579228,56,html-button-response,,
3861,Pilot,,irb,0.0-0.0,,,,0,7497,,,,"<div style=""max-width: 1000px; margin: 0 auto; text-align: left;""><h2 style=""text-align: center;"">Consent to Participate</h2><p>By completing this study, you are participating in research being performed by cognitive scientists in the Stanford University Department of Linguistics and the University of Southern California Department of Linguistics. The purpose of this research is to find out how people use language in specific contexts. You must be at least 18 years old to participate. There are neither specific benefits nor anticipated risks associated with participation in this study. Your participation in this study is completely voluntary and you can withdraw at any time by simply exiting the study. You may decline to answer any or all of the questions following the study. Choosing not to participate or withdrawing will result in no penalty. Your anonymity is assured; the researchers who have requested your participation will not receive any personal information about you, and any information you provide will not be shared in association with any personally identifying information.</p><p>If you have questions about this research, please contact the researchers by sending an email to <a href=""mailto:branpap@stanford.edu"" style=""color: blue;"">branpap@stanford.edu</a>. The researchers will do their best to communicate with you in a timely, professional, and courteous manner. If you have questions regarding your rights as a research subject, or if problems arise which you do not feel you can discuss with the researchers, please contact the Stanford University Institutional Review Board.</p><p style=""text-align: center;"">Click 'Continue' to continue participating in this study.</p></div>",,7499,0,html-button-response,,
3861,Pilot,,,0.0-1.0,,,,,1325,,,,,True,9828,1,fullscreen,,
3861,Pilot,,gameData,0.0-2.0,,"['Tyler', 'Garrett', 'Jared', 'Brianna', 'Adrienne', 'John', 'Ellen', 'James', 'Dorothy', 'Elizabeth', 'Jennifer', 'Chris']","[None, None, None, None, None, None, None, None, None, None, None, None]",,,,,,,,88928,2,madlibs,,
3861,Pilot,,instructions,0.0-3.0,,,,0,12048,,,,"<div style=""max-width: 1000px; margin: 0 auto; text-align: left;"">
    <h2 style=""text-align: center;"">Instructions</h2>
    <p>In this experiment, you will read a series of 48 sentences that appear one word at a time in the center of the screen. Each trial will begin with a black '+' in the middle. Focus on this '+' and continue watching as the words replace it. The words are presented quickly, and you will not be able to review the sentence after it has passed.</p>
    <p>After each sentence, you will be asked to fill in a missing word that best completes the sentence. Please read carefully and do your best to understand the meaning of each sentence.</p>
    <p>The experiment will take about 10-15 minutes to complete.</p>
    <p>When you are ready, press 'Begin' to start.</p>
  </div>",,100977,3,html-button-response,,
3861,Pilot,4,practice,0.0-4.0,,,,sentence,6119,This is a practice sentence to help you get used to the task.,,,,,113086,4,rsvp,,
3861,Pilot,,instructions,0.0-5.0,,,,0,3500,,,,"<div style=""max-width: 1000px; margin: 0 auto; text-align: left;"">
    <h2 style=""text-align: center;"">End of Practice</h2>
    <p>You have completed the practice trial. The main experiment will now begin. Remember to read each sentence carefully and fill in the missing word after each sentence.</p>
    <p>When you are ready, press 'Continue' to start the main experiment.</p>
  </div>",,116586,5,html-button-response,,
3861,Pilot,4,,0.0-6.0-0.0,weName,,,Desiree,3704,"To hide the gold, Desiree buried the treasure.",targ_15,nonreverse,,,123554,6,rsvp,8,
3861,Pilot,3,,0.0-6.0-0.1,youName,,,Chris,2235,Everyone laughed when Chris told the joke at recess.,targ_11,nonreverse,,,129222,7,rsvp,9,
3861,Pilot,2,,0.0-6.0-0.2,weName,,,Cassidy,2340,"Feeling bad, Cassidy fed the tabby cat some food.",targ_05,reverse_bias,,,134673,8,rsvp,9,
3861,Pilot,2,,0.0-6.0-0.3,weName,,,Karina,3027,"Earlier today, Karina treated the tall patient at the hospital.",targ_06,reverse_bias,,,141066,9,rsvp,10,
3861,Pilot,4,,0.0-6.0-0.4,youName,,,Jennifer,2243,No one was surprised Jennifer caught the fish.,targ_08,reverse_bias,,,146189,10,rsvp,8,
3861,Pilot,4,,0.0-6.0-0.5,filler,,,deer,3731,While Ricardo hunted the deer ran away.,fill_02,garden_path,,,152667,11,rsvp,7,
3861,Pilot,1,,0.0-6.0-0.6,filler,,,greeting,2361,The greeting cards the kids made were covered in glitter.,fill_13,center_embedding,,,158166,12,rsvp,10,
3861,Pilot,3,,0.0-6.0-0.7,youName,,,Elizabeth,4058,No one knew Elizabeth loved the puppy so much.,targ_20,symm,,,165318,13,rsvp,9,
3861,Pilot,4,,0.0-6.0-0.8,weName,,,Brett,2034,"To meet the deadline, Brett reviewed the paper quickly.",targ_09,nonreverse,,,170323,14,rsvp,9,
3861,Pilot,5,,0.0-6.0-0.9,youName,,,Dorothy,2522,"Even though it was dark, Dorothy saw the driver last night.",targ_19,symm,,,176056,15,rsvp,11,
3861,Pilot,1,,0.0-6.0-0.10,filler,,,rumor,2419,"The rumor about Eduardo spread quickly, and the one about Malik did too.",fill_11,vp_ellip,,,182026,16,rsvp,13,
3861,Pilot,1,,0.0-6.0-0.11,filler,,,today,2135,"Before today, Francisco had never considered running this red light.",fill_22,temporal_words,,,187269,17,rsvp,10,
3861,Pilot,10,,0.0-6.0-0.12,filler,,,motorcycle,4099,"After the weekend is over, Marisa can finally ride her motorcycle.",fill_23,temporal_words,,,194566,18,rsvp,11,
3861,Pilot,5,,0.0-6.0-0.13,filler,,,cried,2769,While Kara bathed the baby cried.,fill_01,garden_path,,,199852,19,rsvp,6,
3861,Pilot,1,,0.0-6.0-0.14,filler,,,message,2428,The message Nancy sent to her mom wasn't delivered.,fill_17,center_embedding,,,205225,20,rsvp,9,
3861,Pilot,6,,0.0-6.0-0.15,filler,,,two,2889,"Next month, the players will have two weeks of dress rehearsals.",fill_20,temporal_words,,,213031,21,rsvp,11,
3861,Pilot,4,,0.0-6.0-0.16,youName,,,James,2683,"Coming home last night, James pulled the wagon.",targ_16,nonreverse,,,218495,22,rsvp,8,
3861,Pilot,4,,0.0-6.0-0.17,filler,,,forgot,3577,The assistant Oscar trained forgot the list of coffee orders. ,fill_16,center_embedding,,,225210,23,rsvp,10,
3861,Pilot,4,,0.0-6.0-0.18,weName,,,Carly,2876,It was revealed that Carly typed the mysterious letter.,targ_13,nonreverse,,,231031,24,rsvp,9,
3861,Pilot,4,,0.0-6.0-0.19,weName,,,Angel,8791,It was no secret Angel despised the baker.,targ_21,symm,,,242642,25,rsvp,8,
3861,Pilot,4,,0.0-6.0-0.20,weName,,,Adrian,1950,"To help with studying, Adrian quizzed the student.",targ_03,reverse_bias,,,247347,26,rsvp,8,
3861,Pilot,9,,0.0-6.0-0.21,filler,,,desk,2037,While the student read the notes blew off the desk.,fill_03,garden_path,,,252364,27,rsvp,10,
3861,Pilot,4,,0.0-6.0-0.22,youName,,,Ellen,2054,It was rumored that Ellen ruined the food.,targ_02,reverse_bias,,,257242,28,rsvp,8,
3861,Pilot,1,,0.0-6.0-0.23,filler,,,rusty,2801,The rusty pipes the plumber tried to repair burst.,fill_14,center_embedding,,,262851,29,rsvp,9,
3861,Pilot,8,,0.0-6.0-0.24,filler,,,sister,3643,"The neighbor goes out with friends, and his sister does too.",fill_07,vp_ellip,,,269551,30,rsvp,11,
3861,Pilot,9,,0.0-6.0-0.25,filler,,,month,2752,"Grant vacuums weekly, and Joel usually does so every month.",fill_09,vp_ellip,,,275287,31,rsvp,10,
3861,Pilot,2,,0.0-6.0-0.26,youName,,,John,2406,"This morning, John flew the plane in an emergency.",targ_14,nonreverse,,,280416,32,rsvp,9,
3861,Pilot,6,,0.0-6.0-0.27,youName,,,Adrienne,2627,People are going to dance whenever Adrienne plays music.,targ_12,nonreverse,,,285902,33,rsvp,9,
3861,Pilot,8,,0.0-6.0-0.28,filler,,,poetry,3498,"After next Friday, Adriana will prepare for the poetry contest.",fill_21,temporal_words,,,292390,34,rsvp,10,
3861,Pilot,3,,0.0-6.0-0.29,filler,,,two,2537,"The girl bought two stuffed animals, and the boy did too.",fill_10,vp_ellip,,,298056,35,rsvp,11,
3861,Pilot,2,,0.0-6.0-0.30,filler,,,mother,3098,While the mother calms down the children sit on the bed.,fill_06,garden_path,,,304144,36,rsvp,11,
3861,Pilot,1,,0.0-6.0-0.31,filler,,,morning,3771,"Tomorrow afternoon, the soccer team will visit the history museum.",fill_19,temporal_words,,,311036,37,rsvp,10,
3861,Pilot,1,,0.0-6.0-0.32,weName,,,Gabriela,3674,"Reluctantly, Gabriela hugged the judge even though they were in court.",targ_18,symm,,,317967,38,rsvp,10,
3861,Pilot,2,,0.0-6.0-0.33,youName,,,Brianna,2520,"Last week, Brianna accidentally kissed the neighbor at the party.",targ_17,symm,,,323394,39,rsvp,10,
3861,Pilot,4,,0.0-6.0-0.34,youName,,,Jared,1776,"To win the game, Jared chose the player with the blue tee.",targ_23,symm,,,328291,40,rsvp,12,
3861,Pilot,1,,0.0-6.0-0.35,filler,,,week,3540,"Last month, people argued where to build the new post office in the town.",fill_24,temporal_words,,,335373,41,rsvp,14,
3861,Pilot,4,,0.0-6.0-0.36,filler,,,stew,7644,While Alec orders the fish cooks in a pot.,fill_04,garden_path,,,345752,42,rsvp,9,
3861,Pilot,3,,0.0-6.0-0.37,weName,,,Devon,2029,"Wanting good photos, Devon met the photographer in-person.",targ_24,symm,,,350485,43,rsvp,8,
3861,Pilot,5,,0.0-6.0-0.38,weName,,,Miguel,4492,"Yesterday afternoon, the dog bit Miguel on the leg.",targ_01,reverse_bias,,,357830,44,rsvp,9,
3861,Pilot,3,,0.0-6.0-0.39,weName,,,Shane,2699,It was wild Shane won the race yesterday.,targ_10,nonreverse,,,363396,45,rsvp,8,
3861,Pilot,2,,0.0-6.0-0.40,youName,,,Garrett,2287,Everyone knew Garrett hit the red ball that broke the window.,targ_07,reverse_bias,,,368922,46,rsvp,11,
3861,Pilot,2,,0.0-6.0-0.41,youName,,,Tyler,1951,It was Tyler who pursued the thief this morning.,targ_04,reverse_bias,,,373666,47,rsvp,9,
3861,Pilot,12,,0.0-6.0-0.42,filler,,,influencer,5228,"The scandal about the actor was leaked, and the one about the influencer was too.",fill_12,vp_ellip,,,382847,48,rsvp,15,
3861,Pilot,4,,0.0-6.0-0.43,filler,,,dusty,3928,While Jorge drove the dusty car veered into a ditch.,fill_05,garden_path,,,389752,49,rsvp,10,
3861,Pilot,11,,0.0-6.0-0.44,filler,,,green,1757,The laptop the officer pulled out of the bag had a green cover.,fill_18,center_embedding,,,395084,50,rsvp,13,
3861,Pilot,3,,0.0-6.0-0.45,filler,,,coyote,5983,The squirrel the coyote chased found an acorn.,fill_15,center_embedding,,,403891,51,rsvp,8,
3861,Pilot,4,,0.0-6.0-0.46,weName,,,Colton,2727,It was nice of Colton to thank the mean customer.,targ_22,symm,,,409561,52,rsvp,10,
3861,Pilot,3,,0.0-6.0-0.47,filler,,,Thursdays,7666,"Vincent works on Tuesdays, and Summer does on Thursdays too.",fill_08,vp_ellip,,,420097,53,rsvp,10,
3861,Pilot,,demoSurvey,0.0-7.0,,,,"{'age': '51', 'enjoy': 'Better than the average experiment', 'gender': 'Female', 'correct': 'Yes', 'payment': 'The payment was fair', 'comments': '', 'education': 'Hold a higher degree'}",21582,,,,,,441681,54,survey-html-form,,
3861,Pilot,,,0.0-8.0,,,,,,,,,,True,441684,55,fullscreen,,
3861,Pilot,,thanks,0.0-9.0,,,,0,9897,,,,Thank you for your time! Please click 'Continue' and then wait a moment until you're directed back to Prolific.<br><br>,,451582,56,html-button-response,,
3857,Pilot,,irb,0.0-0.0,,,,0,2217,,,,"<div style=""max-width: 1000px; margin: 0 auto; text-align: left;""><h2 style=""text-align: center;"">Consent to Participate</h2><p>By completing this study, you are participating in research being performed by cognitive scientists in the Stanford University Department of Linguistics and the University of Southern California Department of Linguistics. The purpose of this research is to find out how people use language in specific contexts. You must be at least 18 years old to participate. There are neither specific benefits nor anticipated risks associated with participation in this study. Your participation in this study is completely voluntary and you can withdraw at any time by simply exiting the study. You may decline to answer any or all of the questions following the study. Choosing not to participate or withdrawing will result in no penalty. Your anonymity is assured; the researchers who have requested your participation will not receive any personal information about you, and any information you provide will not be shared in association with any personally identifying information.</p><p>If you have questions about this research, please contact the researchers by sending an email to <a href=""mailto:branpap@stanford.edu"" style=""color: blue;"">branpap@stanford.edu</a>. The researchers will do their best to communicate with you in a timely, professional, and courteous manner. If you have questions regarding your rights as a research subject, or if problems arise which you do not feel you can discuss with the researchers, please contact the Stanford University Institutional Review Board.</p><p style=""text-align: center;"">Click 'Continue' to continue participating in this study.</p></div>",,2225,0,html-button-response,,
3857,Pilot,,,0.0-1.0,,,,,1286,,,,,True,4513,1,fullscreen,,
3857,Pilot,,gameData,0.0-2.0,,"['Paul', 'Gina', 'Ringo', 'Angela', 'India', 'Jose', 'Juan', 'Benny', 'Benjamin', 'Peter', 'Zane', 'Shania']","[None, None, None, None, None, None, None, None, None, None, None, None]",,,,,,,,74536,2,madlibs,,
3857,Pilot,,instructions,0.0-3.0,,,,0,7240,,,,"<div style=""max-width: 1000px; margin: 0 auto; text-align: left;"">
    <h2 style=""text-align: center;"">Instructions</h2>
    <p>In this experiment, you will read a series of 48 sentences that appear one word at a time in the center of the screen. Each trial will begin with a black '+' in the middle. Focus on this '+' and continue watching as the words replace it. The words are presented quickly, and you will not be able to review the sentence after it has passed.</p>
    <p>After each sentence, you will be asked to fill in a missing word that best completes the sentence. Please read carefully and do your best to understand the meaning of each sentence.</p>
    <p>The experiment will take about 10-15 minutes to complete.</p>
    <p>When you are ready, press 'Begin' to start.</p>
  </div>",,81777,3,html-button-response,,
3857,Pilot,4,practice,0.0-4.0,,,,sentence,4686,This is a practice sentence to help you get used to the task.,,,,,91389,4,rsvp,,
3857,Pilot,,instructions,0.0-5.0,,,,0,4959,,,,"<div style=""max-width: 1000px; margin: 0 auto; text-align: left;"">
    <h2 style=""text-align: center;"">End of Practice</h2>
    <p>You have completed the practice trial. The main experiment will now begin. Remember to read each sentence carefully and fill in the missing word after each sentence.</p>
    <p>When you are ready, press 'Continue' to start the main experiment.</p>
  </div>",,96348,5,html-button-response,,
3857,Pilot,2,,0.0-6.0-0.0,filler,,,mother,2059,While the mother calms down the children sit on the bed.,fill_06,garden_path,,,102857,6,rsvp,11,
3857,Pilot,4,,0.0-6.0-0.1,filler,,,dusty,2030,While Jorge drove the dusty car veered into a ditch.,fill_05,garden_path,,,108479,7,rsvp,10,
3857,Pilot,6,,0.0-6.0-0.2,youName,,,Shania,2059,People are going to dance whenever Shania plays music.,targ_12,nonreverse,,,113659,8,rsvp,9,
3857,Pilot,1,,0.0-6.0-0.3,filler,,,"month,",2820,"Last month, people argued where to build the new post office in the town.",fill_24,temporal_words,,,120325,9,rsvp,14,
3857,Pilot,3,,0.0-6.0-0.4,weName,,,Shane,1377,It was wild Shane won the race yesterday.,targ_10,nonreverse,,,124681,10,rsvp,8,
3857,Pilot,12,,0.0-6.0-0.5,filler,,,influence,2033,"The scandal about the actor was leaked, and the one about the influencer was too.",fill_12,vp_ellip,,,130370,11,rsvp,15,
3857,Pilot,1,,0.0-6.0-0.6,filler,,,rusty,1169,The rusty pipes the plumber tried to repair burst.,fill_14,center_embedding,,,135131,12,rsvp,9,
3857,Pilot,1,,0.0-6.0-0.7,filler,,,greeting,2533,The greeting cards the kids made were covered in glitter.,fill_13,center_embedding,,,140459,13,rsvp,10,
3857,Pilot,8,,0.0-6.0-0.8,filler,,,sister,3493,"The neighbor goes out with friends, and his sister does too.",fill_07,vp_ellip,,,146741,14,rsvp,11,
3857,Pilot,3,,0.0-6.0-0.9,filler,,,coyote,4547,The squirrel the coyote chased found an acorn.,fill_15,center_embedding,,,153576,15,rsvp,8,
3857,Pilot,4,,0.0-6.0-0.10,weName,,,Angel,1424,It was no secret Angel despised the baker.,targ_21,symm,,,157682,16,rsvp,8,
3857,Pilot,4,,0.0-6.0-0.11,weName,,,Kendra,1393,"Coming home last night, Kendra pulled the wagon.",targ_16,nonreverse,,,161583,17,rsvp,8,
3857,Pilot,3,,0.0-6.0-0.12,filler,,,two,1774,"The girl bought two stuffed animals, and the boy did too.",fill_10,vp_ellip,,,166323,18,rsvp,11,
3857,Pilot,3,,0.0-6.0-0.13,youName,,,Zane,1071,No one knew Zane loved the puppy so much.,targ_20,symm,,,171173,19,rsvp,9,
3857,Pilot,4,,0.0-6.0-0.14,youName,,,Peter,2244,"To meet the deadline, Peter reviewed the paper quickly.",targ_09,nonreverse,,,175930,20,rsvp,9,
3857,Pilot,11,,0.0-6.0-0.15,filler,,,green,1266,The laptop the officer pulled out of the bag had a green cover.,fill_18,center_embedding,,,180247,21,rsvp,13,
3857,Pilot,1,,0.0-6.0-0.16,filler,,,"afternoon,",3299,"Tomorrow afternoon, the soccer team will visit the history museum.",fill_19,temporal_words,,,186139,22,rsvp,10,
3857,Pilot,5,,0.0-6.0-0.17,youName,,,Benjamin,2214,"Even though it was dark, Benjamin saw the driver last night.",targ_19,symm,,,191113,23,rsvp,11,
3857,Pilot,2,,0.0-6.0-0.18,youName,,,Benny,1552,"Last week, Benny accidentally kissed the neighbor at the party.",targ_17,symm,,,195380,24,rsvp,10,
3857,Pilot,3,,0.0-6.0-0.19,weName,,,Jake,775,Everyone laughed when Jake told the joke at recess.,targ_11,nonreverse,,,198996,25,rsvp,9,
3857,Pilot,5,,0.0-6.0-0.20,youName,,,Juan,1207,"Yesterday afternoon, the dog bit Juan on the leg.",targ_01,reverse_bias,,,202716,26,rsvp,9,
3857,Pilot,4,,0.0-6.0-0.21,weName,,,Spencer,1095,"To win the game, Spencer chose the player with the blue tee.",targ_23,symm,,,206703,27,rsvp,12,
3857,Pilot,4,,0.0-6.0-0.22,filler,,,forgot,3320,The assistant Oscar trained forgot the list of coffee orders. ,fill_16,center_embedding,,,212776,28,rsvp,10,
3857,Pilot,4,,0.0-6.0-0.23,youName,,,Jose,918,It was nice of Jose to thank the mean customer.,targ_22,symm,,,216406,29,rsvp,10,
3857,Pilot,1,,0.0-6.0-0.24,filler,,,rumor,2958,"The rumor about Eduardo spread quickly, and the one about Malik did too.",fill_11,vp_ellip,,,222407,30,rsvp,13,
3857,Pilot,4,,0.0-6.0-0.25,youName,,,India,2198,"To help with studying, India quizzed the student.",targ_03,reverse_bias,,,226996,31,rsvp,8,
3857,Pilot,3,,0.0-6.0-0.26,weName,,,Devon,1587,"Wanting good photos, Devon met the photographer in-person.",targ_24,symm,,,231070,32,rsvp,8,
3857,Pilot,9,,0.0-6.0-0.27,filler,,,desk.,1922,While the student read the notes blew off the desk.,fill_03,garden_path,,,235907,33,rsvp,10,
3857,Pilot,4,,0.0-6.0-0.28,youName,,,Angela,1093,"To hide the gold, Angela buried the treasure.",targ_15,nonreverse,,,239322,34,rsvp,8,
3857,Pilot,4,,0.0-6.0-0.29,filler,,,chef,6217,While Alec orders the fish cooks in a pot.,fill_04,garden_path,,,248023,35,rsvp,9,
3857,Pilot,2,,0.0-6.0-0.30,weName,,,Bethany,1883,Everyone knew Bethany hit the red ball that broke the window.,targ_07,reverse_bias,,,253155,36,rsvp,11,
3857,Pilot,2,,0.0-6.0-0.31,youName,,,Ringo,1032,"This morning, Ringo flew the plane in an emergency.",targ_14,nonreverse,,,256835,37,rsvp,9,
3857,Pilot,4,,0.0-6.0-0.32,youName,,,Gina,1353,No one was surprised Gina caught the fish.,targ_08,reverse_bias,,,260519,38,rsvp,8,
3857,Pilot,4,,0.0-6.0-0.33,filler,,,deer,2356,While Ricardo hunted the deer ran away.,fill_02,garden_path,,,265048,39,rsvp,7,
3857,Pilot,1,,0.0-6.0-0.34,filler,,,"today,",2270,"Before today, Francisco had never considered running this red light.",fill_22,temporal_words,,,269923,40,rsvp,10,
3857,Pilot,10,,0.0-6.0-0.35,filler,,,motorcycle.,2998,"After the weekend is over, Marisa can finally ride her motorcycle.",fill_23,temporal_words,,,275922,41,rsvp,11,
3857,Pilot,6,,0.0-6.0-0.36,filler,,,two,2364,"Next month, the players will have two weeks of dress rehearsals.",fill_20,temporal_words,,,281494,42,rsvp,11,
3857,Pilot,2,,0.0-6.0-0.37,weName,,,Cassidy,1367,"Feeling bad, Cassidy fed the tabby cat some food.",targ_05,reverse_bias,,,285585,43,rsvp,9,
3857,Pilot,8,,0.0-6.0-0.38,filler,,,poetry,3976,"After next Friday, Adriana will prepare for the poetry contest.",fill_21,temporal_words,,,292190,44,rsvp,10,
3857,Pilot,1,,0.0-6.0-0.39,filler,,,message,2028,The message Nancy sent to her mom wasn't delivered.,fill_17,center_embedding,,,296662,45,rsvp,9,
3857,Pilot,1,,0.0-6.0-0.40,weName,,,Gabriela,2741,"Reluctantly, Gabriela hugged the judge even though they were in court.",targ_18,symm,,,302179,46,rsvp,10,
3857,Pilot,2,,0.0-6.0-0.41,youName,,,Paul,1524,"Earlier today, Paul treated the tall patient at the hospital.",targ_06,reverse_bias,,,306375,47,rsvp,10,
3857,Pilot,4,,0.0-6.0-0.42,weName,,,Chase,1129,It was rumored that Chase ruined the food.,targ_02,reverse_bias,,,309818,48,rsvp,8,
3857,Pilot,2,,0.0-6.0-0.43,weName,,,Seth,929,It was Seth who pursued the thief this morning.,targ_04,reverse_bias,,,313192,49,rsvp,9,
3857,Pilot,4,,0.0-6.0-0.44,weName,,,Carly,1472,It was revealed that Carly typed the mysterious letter.,targ_13,nonreverse,,,317100,50,rsvp,9,
3857,Pilot,9,,0.0-6.0-0.45,filler,,,month.,11018,"Grant vacuums weekly, and Joel usually does so every month.",fill_09,vp_ellip,,,330681,51,rsvp,10,
3857,Pilot,3,,0.0-6.0-0.46,filler,,,Tuesdays,3385,"Vincent works on Tuesdays, and Summer does on Thursdays too.",fill_08,vp_ellip,,,337374,52,rsvp,10,
3857,Pilot,5,,0.0-6.0-0.47,filler,,,cried.,2076,While Kara bathed the baby cried.,fill_01,garden_path,,,341818,53,rsvp,6,
3857,Pilot,,demoSurvey,0.0-7.0,,,,"{'age': '34', 'enjoy': 'Better than the average experiment', 'gender': 'Non-binary/Non-conforming', 'correct': 'Yes', 'payment': 'The payment was fair', 'comments': 'It was fun, and a little challenging at times.', 'education': 'Some college'}",25926,,,,,,367746,54,survey-html-form,,
3857,Pilot,,,0.0-8.0,,,,,,,,,,True,367748,55,fullscreen,,
3857,Pilot,,thanks,0.0-9.0,,,,0,1302,,,,Thank you for your time! Please click 'Continue' and then wait a moment until you're directed back to Prolific.<br><br>,,369050,56,html-button-response,,
3859,Pilot,,irb,0.0-0.0,,,,0,8786,,,,"<div style=""max-width: 1000px; margin: 0 auto; text-align: left;""><h2 style=""text-align: center;"">Consent to Participate</h2><p>By completing this study, you are participating in research being performed by cognitive scientists in the Stanford University Department of Linguistics and the University of Southern California Department of Linguistics. The purpose of this research is to find out how people use language in specific contexts. You must be at least 18 years old to participate. There are neither specific benefits nor anticipated risks associated with participation in this study. Your participation in this study is completely voluntary and you can withdraw at any time by simply exiting the study. You may decline to answer any or all of the questions following the study. Choosing not to participate or withdrawing will result in no penalty. Your anonymity is assured; the researchers who have requested your participation will not receive any personal information about you, and any information you provide will not be shared in association with any personally identifying information.</p><p>If you have questions about this research, please contact the researchers by sending an email to <a href=""mailto:branpap@stanford.edu"" style=""color: blue;"">branpap@stanford.edu</a>. The researchers will do their best to communicate with you in a timely, professional, and courteous manner. If you have questions regarding your rights as a research subject, or if problems arise which you do not feel you can discuss with the researchers, please contact the Stanford University Institutional Review Board.</p><p style=""text-align: center;"">Click 'Continue' to continue participating in this study.</p></div>",,8787,0,html-button-response,,
3859,Pilot,,,0.0-1.0,,,,,2300,,,,,True,12089,1,fullscreen,,
3859,Pilot,,gameData,0.0-2.0,,"['Gabi', 'Jenny', 'Freddy', 'Leigh', 'Tom', 'Skip', 'Natasha', 'Marie', 'Todd', 'Jack', 'Carl', 'Jimmy']","[None, None, None, None, None, None, None, None, None, None, None, None]",,,,,,,,139170,2,madlibs,,
3859,Pilot,,instructions,0.0-3.0,,,,0,16517,,,,"<div style=""max-width: 1000px; margin: 0 auto; text-align: left;"">
    <h2 style=""text-align: center;"">Instructions</h2>
    <p>In this experiment, you will read a series of 48 sentences that appear one word at a time in the center of the screen. Each trial will begin with a black '+' in the middle. Focus on this '+' and continue watching as the words replace it. The words are presented quickly, and you will not be able to review the sentence after it has passed.</p>
    <p>After each sentence, you will be asked to fill in a missing word that best completes the sentence. Please read carefully and do your best to understand the meaning of each sentence.</p>
    <p>The experiment will take about 10-15 minutes to complete.</p>
    <p>When you are ready, press 'Begin' to start.</p>
  </div>",,155688,3,html-button-response,,
3859,Pilot,4,practice,0.0-4.0,,,,sentence,6330,This is a practice sentence to help you get used to the task.,,,,,170069,4,rsvp,,
3859,Pilot,,instructions,0.0-5.0,,,,0,4449,,,,"<div style=""max-width: 1000px; margin: 0 auto; text-align: left;"">
    <h2 style=""text-align: center;"">End of Practice</h2>
    <p>You have completed the practice trial. The main experiment will now begin. Remember to read each sentence carefully and fill in the missing word after each sentence.</p>
    <p>When you are ready, press 'Continue' to start the main experiment.</p>
  </div>",,174520,5,html-button-response,,
3859,Pilot,3,,0.0-6.0-0.0,filler,,,days,4495,"Vincent works on Tuesdays, and Summer does on Thursdays too.",fill_08,vp_ellip,,,182759,6,rsvp,10,
3859,Pilot,2,,0.0-6.0-0.1,youName,,,Vincent,9969,"Earlier today, Jimmy treated the tall patient at the hospital.",targ_06,reverse_bias,,,196783,7,rsvp,10,
3859,Pilot,2,,0.0-6.0-0.2,weName,,,Bethany,3850,Everyone knew Bethany hit the red ball that broke the window.,targ_07,reverse_bias,,,204517,8,rsvp,11,
3859,Pilot,2,,0.0-6.0-0.3,weName,,,Seth,2955,It was Seth who pursued the thief this morning.,targ_04,reverse_bias,,,211008,9,rsvp,9,
3859,Pilot,3,,0.0-6.0-0.4,filler,,,coyote,3930,The squirrel the coyote chased found an acorn.,fill_15,center_embedding,,,218376,10,rsvp,8,
3859,Pilot,6,,0.0-6.0-0.5,filler,,,two,2246,"Next month, the players will have two weeks of dress rehearsals.",fill_20,temporal_words,,,224623,11,rsvp,11,
3859,Pilot,4,,0.0-6.0-0.6,weName,,,Chase,2275,It was rumored that Chase ruined the food.,targ_02,reverse_bias,,,230243,12,rsvp,8,
3859,Pilot,2,,0.0-6.0-0.7,youName,,,Carl,2201,"Feeling bad, Carl fed the tabby cat some food.",targ_05,reverse_bias,,,235569,13,rsvp,9,
3859,Pilot,2,,0.0-6.0-0.8,youName,,,Jack,1741,"This morning, Jack flew the plane in an emergency.",targ_14,nonreverse,,,240517,14,rsvp,9,
3859,Pilot,4,,0.0-6.0-0.9,weName,,,Angel,2876,It was no secret Angel despised the baker.,targ_21,symm,,,246486,15,rsvp,8,
3859,Pilot,1,,0.0-6.0-0.10,filler,,,rumor,2801,"The rumor about Eduardo spread quickly, and the one about Malik did too.",fill_11,vp_ellip,,,252979,16,rsvp,13,
3859,Pilot,6,,0.0-6.0-0.11,weName,,,Alejandro,7922,People are going to dance whenever Alejandro plays music.,targ_12,nonreverse,,,264183,17,rsvp,9,
3859,Pilot,3,,0.0-6.0-0.12,weName,,,Jack,2631,Everyone laughed when Jake told the joke at recess.,targ_11,nonreverse,,,269773,18,rsvp,9,
3859,Pilot,4,,0.0-6.0-0.13,youName,,,Todd,2247,"To win the game, Todd chose the player with the blue tee.",targ_23,symm,,,275481,19,rsvp,12,
3859,Pilot,3,,0.0-6.0-0.14,weName,,,Devon,2254,"Wanting good photos, Devon met the photographer in-person.",targ_24,symm,,,280359,20,rsvp,8,
3859,Pilot,11,,0.0-6.0-0.15,filler,,,green,3175,The laptop the officer pulled out of the bag had a green cover.,fill_18,center_embedding,,,286963,21,rsvp,13,
3859,Pilot,4,,0.0-6.0-0.16,filler,,,dusty,2923,While Jorge drove the dusty car veered into a ditch.,fill_05,garden_path,,,292928,22,rsvp,10,
3859,Pilot,5,,0.0-6.0-0.17,filler,,,cried,2369,While Kara bathed the baby cried.,fill_01,garden_path,,,297602,23,rsvp,6,
3859,Pilot,10,,0.0-6.0-0.18,filler,,,motorcar,4384,"After the weekend is over, Marisa can finally ride her motorcycle.",fill_23,temporal_words,,,305517,24,rsvp,11,
3859,Pilot,1,,0.0-6.0-0.19,filler,,,rusty,2570,The rusty pipes the plumber tried to repair burst.,fill_14,center_embedding,,,311123,25,rsvp,9,
3859,Pilot,2,,0.0-6.0-0.20,filler,,,Mother,3244,While the mother calms down the children sit on the bed.,fill_06,garden_path,,,317467,26,rsvp,11,
3859,Pilot,3,,0.0-6.0-0.21,youName,,,Marie,2380,No one knew Marie loved the puppy so much.,targ_20,symm,,,322533,27,rsvp,9,
3859,Pilot,2,,0.0-6.0-0.22,youName,,,Natasha,2652,"Last week, Natasha accidentally kissed the neighbor at the party.",targ_17,symm,,,328155,28,rsvp,10,
3859,Pilot,3,,0.0-6.0-0.23,youName,,,Skip,2308,It was wild Skip won the race yesterday.,targ_10,nonreverse,,,333493,29,rsvp,8,
3859,Pilot,1,,0.0-6.0-0.24,filler,,,message,3025,The message Nancy sent to her mom wasn't delivered.,fill_17,center_embedding,,,339210,30,rsvp,9,
3859,Pilot,5,,0.0-6.0-0.25,weName,,,Casey,2793,"Even though it was dark, Casey saw the driver last night.",targ_19,symm,,,345204,31,rsvp,11,
3859,Pilot,4,,0.0-6.0-0.26,youName,,,Tom,1739,It was nice of Tom to thank the mean customer.,targ_22,symm,,,349879,32,rsvp,10,
3859,Pilot,5,,0.0-6.0-0.27,youName,,,Leigh,1871,"Yesterday afternoon, the dog bit Leigh on the leg.",targ_01,reverse_bias,,,354543,33,rsvp,9,
3859,Pilot,9,,0.0-6.0-0.28,filler,,,month,8227,"Grant vacuums weekly, and Joel usually does so every month.",fill_09,vp_ellip,,,365705,34,rsvp,10,
3859,Pilot,4,,0.0-6.0-0.29,youName,,,Freddy,3792,"To help with studying, Freddy quizzed the student.",targ_03,reverse_bias,,,372451,35,rsvp,8,
3859,Pilot,8,,0.0-6.0-0.30,filler,,,,6407,"After next Friday, Adriana will prepare for the poetry contest.",fill_21,temporal_words,,,381829,36,rsvp,10,
3859,Pilot,3,,0.0-6.0-0.31,filler,,,two,5691,"The girl bought two stuffed animals, and the boy did too.",fill_10,vp_ellip,,,391166,37,rsvp,11,
3859,Pilot,4,,0.0-6.0-0.32,weName,,,Desiree,3648,"To hide the gold, Desiree buried the treasure.",targ_15,nonreverse,,,397428,38,rsvp,8,
3859,Pilot,12,,0.0-6.0-0.33,filler,,,influencer,5240,"The scandal about the actor was leaked, and the one about the influencer was too.",fill_12,vp_ellip,,,406345,39,rsvp,15,
3859,Pilot,1,,0.0-6.0-0.34,filler,,,afternoon,4363,"Tomorrow afternoon, the soccer team will visit the history museum.",fill_19,temporal_words,,,413648,40,rsvp,10,
3859,Pilot,4,,0.0-6.0-0.35,filler,,,fish,4612,While Alec orders the fish cooks in a pot.,fill_04,garden_path,,,421053,41,rsvp,9,
3859,Pilot,4,,0.0-6.0-0.36,weName,,,Carly,2572,It was revealed that Carly typed the mysterious letter.,targ_13,nonreverse,,,426418,42,rsvp,9,
3859,Pilot,1,,0.0-6.0-0.37,filler,,,today,2383,"Before today, Francisco had never considered running this red light.",fill_22,temporal_words,,,432023,43,rsvp,10,
3859,Pilot,4,,0.0-6.0-0.38,filler,,,forgot,5480,The assistant Oscar trained forgot the list of coffee orders. ,fill_16,center_embedding,,,440514,44,rsvp,10,
3859,Pilot,9,,0.0-6.0-0.39,filler,,,desk,2296,While the student read the notes blew off the desk.,fill_03,garden_path,,,446076,45,rsvp,10,
3859,Pilot,4,,0.0-6.0-0.40,filler,,,deer,2168,While Ricardo hunted the deer ran away.,fill_02,garden_path,,,450724,46,rsvp,7,
3859,Pilot,1,,0.0-6.0-0.41,filler,,,greeting,3107,The greeting cards the kids made were covered in glitter.,fill_13,center_embedding,,,456675,47,rsvp,10,
3859,Pilot,4,,0.0-6.0-0.42,youName,,,Carly,7394,"To meet the deadline, Jenny reviewed the paper quickly.",targ_09,nonreverse,,,466868,48,rsvp,9,
3859,Pilot,4,,0.0-6.0-0.43,youName,,,Gabi,3451,"Coming home last night, Gabi pulled the wagon.",targ_16,nonreverse,,,472918,49,rsvp,8,
3859,Pilot,1,,0.0-6.0-0.44,filler,,,night,3223,"Last month, people argued where to build the new post office in the town.",fill_24,temporal_words,,,480995,50,rsvp,14,
3859,Pilot,4,,0.0-6.0-0.45,weName,,,Dominique,4587,No one was surprised Dominique caught the fish.,targ_08,reverse_bias,,,488138,51,rsvp,8,
3859,Pilot,8,,0.0-6.0-0.46,filler,,,sister,3742,"The neighbor goes out with friends, and his sister does too.",fill_07,vp_ellip,,,495011,52,rsvp,11,
3859,Pilot,1,,0.0-6.0-0.47,weName,,,Rebecca,3559,"Reluctantly, Gabriela hugged the judge even though they were in court.",targ_18,symm,,,502014,53,rsvp,10,
3859,Pilot,,demoSurvey,0.0-7.0,,,,"{'age': '62', 'enjoy': 'An average experiment', 'gender': 'Female', 'correct': 'Yes', 'payment': 'The payment was fair', 'comments': '', 'education': 'Some college'}",33821,,,,,,535837,54,survey-html-form,,
3859,Pilot,,,0.0-8.0,,,,,,,,,,True,535838,55,fullscreen,,
3859,Pilot,,thanks,0.0-9.0,,,,0,2196,,,,Thank you for your time! Please click 'Continue' and then wait a moment until you're directed back to Prolific.<br><br>,,538035,56,html-button-response,,
3863,Pilot,,irb,0.0-0.0,,,,0,9928,,,,"<div style=""max-width: 1000px; margin: 0 auto; text-align: left;""><h2 style=""text-align: center;"">Consent to Participate</h2><p>By completing this study, you are participating in research being performed by cognitive scientists in the Stanford University Department of Linguistics and the University of Southern California Department of Linguistics. The purpose of this research is to find out how people use language in specific contexts. You must be at least 18 years old to participate. There are neither specific benefits nor anticipated risks associated with participation in this study. Your participation in this study is completely voluntary and you can withdraw at any time by simply exiting the study. You may decline to answer any or all of the questions following the study. Choosing not to participate or withdrawing will result in no penalty. Your anonymity is assured; the researchers who have requested your participation will not receive any personal information about you, and any information you provide will not be shared in association with any personally identifying information.</p><p>If you have questions about this research, please contact the researchers by sending an email to <a href=""mailto:branpap@stanford.edu"" style=""color: blue;"">branpap@stanford.edu</a>. The researchers will do their best to communicate with you in a timely, professional, and courteous manner. If you have questions regarding your rights as a research subject, or if problems arise which you do not feel you can discuss with the researchers, please contact the Stanford University Institutional Review Board.</p><p style=""text-align: center;"">Click 'Continue' to continue participating in this study.</p></div>",,9933,0,html-button-response,,
3863,Pilot,,,0.0-1.0,,,,,5012,,,,,True,15950,1,fullscreen,,
3863,Pilot,,gameData,0.0-2.0,,"['Jack', 'Jeremy', 'Boniface', 'Cliff', 'Malvin', 'Ray', 'Jayson', 'Gregory', 'Alice', 'Stanley', 'Ken', 'Janeth']","[None, None, None, None, None, None, None, None, None, None, None, None]",,,,,,,,188167,2,madlibs,,
3863,Pilot,,instructions,0.0-3.0,,,,0,19557,,,,"<div style=""max-width: 1000px; margin: 0 auto; text-align: left;"">
    <h2 style=""text-align: center;"">Instructions</h2>
    <p>In this experiment, you will read a series of 48 sentences that appear one word at a time in the center of the screen. Each trial will begin with a black '+' in the middle. Focus on this '+' and continue watching as the words replace it. The words are presented quickly, and you will not be able to review the sentence after it has passed.</p>
    <p>After each sentence, you will be asked to fill in a missing word that best completes the sentence. Please read carefully and do your best to understand the meaning of each sentence.</p>
    <p>The experiment will take about 10-15 minutes to complete.</p>
    <p>When you are ready, press 'Begin' to start.</p>
  </div>",,207727,3,html-button-response,,
3863,Pilot,4,practice,0.0-4.0,,,,exercise,167576,This is a practice sentence to help you get used to the task.,,,,,398146,4,rsvp,,
3863,Pilot,,instructions,0.0-5.0,,,,0,12206,,,,"<div style=""max-width: 1000px; margin: 0 auto; text-align: left;"">
    <h2 style=""text-align: center;"">End of Practice</h2>
    <p>You have completed the practice trial. The main experiment will now begin. Remember to read each sentence carefully and fill in the missing word after each sentence.</p>
    <p>When you are ready, press 'Continue' to start the main experiment.</p>
  </div>",,410354,5,html-button-response,,
3863,Pilot,8,,0.0-6.0-0.0,filler,,,sister,29108,"The neighbor goes out with friends, and his sister does too.",fill_07,vp_ellip,,,470061,6,rsvp,11,
3863,Pilot,5,,0.0-6.0-0.1,youName,,,janeth,24186,"Even though it was dark, Janeth saw the driver last night.",targ_19,symm,,,505984,7,rsvp,11,
3863,Pilot,3,,0.0-6.0-0.2,filler,,, coyote,28762,The squirrel the coyote chased found an acorn.,fill_15,center_embedding,,,548896,8,rsvp,8,
3863,Pilot,1,,0.0-6.0-0.3,filler,,, message,18243,The message Nancy sent to her mom wasn't delivered.,fill_17,center_embedding,,,576058,9,rsvp,9,
3863,Pilot,2,,0.0-6.0-0.4,youName,,,Ken,15728,"Earlier today, Ken treated the tall patient at the hospital.",targ_06,reverse_bias,,,604160,10,rsvp,10,
3863,Pilot,4,,0.0-6.0-0.5,youName,,, stanley,15156,It was revealed that Stanley typed the mysterious letter.,targ_13,nonreverse,,,628493,11,rsvp,9,
3863,Pilot,1,,0.0-6.0-0.6,filler,,,afternoon,12378,"Tomorrow afternoon, the soccer team will visit the history museum.",fill_19,temporal_words,,,649495,12,rsvp,10,
3863,Pilot,1,,0.0-6.0-0.7,filler,,,month,14061,"Last month, people argued where to build the new post office in the town.",fill_24,temporal_words,,,675574,13,rsvp,14,
3863,Pilot,4,,0.0-6.0-0.8,weName,,,Dominique,22050,No one was surprised Dominique caught the fish.,targ_08,reverse_bias,,,704562,14,rsvp,8,
3863,Pilot,4,,0.0-6.0-0.9,youName,,,Alice,10819,"To help with studying, Alice quizzed the student.",targ_03,reverse_bias,,,724372,15,rsvp,8,
3863,Pilot,2,,0.0-6.0-0.10,youName,,,Gregory,7545,It was Gregory who pursued the thief this morning.,targ_04,reverse_bias,,,746182,16,rsvp,9,
3863,Pilot,4,,0.0-6.0-0.11,weName,,,Desiree,19915,"To hide the gold, Desiree buried the treasure.",targ_15,nonreverse,,,771223,17,rsvp,8,
3863,Pilot,9,,0.0-6.0-0.12,filler,,,desk,13024,While the student read the notes blew off the desk.,fill_03,garden_path,,,800617,18,rsvp,10,
3863,Pilot,1,,0.0-6.0-0.13,filler,,,rumor,17822,"The rumor about Eduardo spread quickly, and the one about Malik did too.",fill_11,vp_ellip,,,827608,19,rsvp,13,
3863,Pilot,4,,0.0-6.0-0.14,weName,,,colton,10259,It was nice of Colton to thank the mean customer.,targ_22,symm,,,845969,20,rsvp,10,
3863,Pilot,4,,0.0-6.0-0.15,filler,,,deer,10616,While Ricardo hunted the deer ran away.,fill_02,garden_path,,,864001,21,rsvp,7,
3863,Pilot,4,,0.0-6.0-0.16,filler,,,forgot,31151,The assistant Oscar trained forgot the list of coffee orders. ,fill_16,center_embedding,,,903604,22,rsvp,10,
3863,Pilot,3,,0.0-6.0-0.17,weName,,,jack,7035,Everyone laughed when Jake told the joke at recess.,targ_11,nonreverse,,,920670,23,rsvp,9,
3863,Pilot,4,,0.0-6.0-0.18,filler,,,fish,14574,While Alec orders the fish cooks in a pot.,fill_04,garden_path,,,940740,24,rsvp,9,
3863,Pilot,2,,0.0-6.0-0.19,youName,,,jayson,12596,"Last week, Jayson accidentally kissed the neighbor at the party.",targ_17,symm,,,961814,25,rsvp,10,
3863,Pilot,3,,0.0-6.0-0.20,filler,,,two,11820,"The girl bought two stuffed animals, and the boy did too.",fill_10,vp_ellip,,,989266,26,rsvp,11,
3863,Pilot,4,,0.0-6.0-0.21,youName,,,Ray,12501,"To meet the deadline, Ray reviewed the paper quickly.",targ_09,nonreverse,,,1013325,27,rsvp,9,
3863,Pilot,8,,0.0-6.0-0.22,filler,,,poetry,21873,"After next Friday, Adriana will prepare for the poetry contest.",fill_21,temporal_words,,,1041498,28,rsvp,10,
3863,Pilot,4,,0.0-6.0-0.23,youName,,,malvin,5988,It was no secret Malvin despised the baker.,targ_21,symm,,,1057136,29,rsvp,8,
3863,Pilot,4,,0.0-6.0-0.24,youName,,,cliff,5963,It was rumored that Cliff ruined the food.,targ_02,reverse_bias,,,1069009,30,rsvp,8,
3863,Pilot,4,,0.0-6.0-0.25,weName,,,spencer,4747,"To win the game, Spencer chose the player with the blue tee.",targ_23,symm,,,1080398,31,rsvp,12,
3863,Pilot,1,,0.0-6.0-0.26,filler,,,greeting,21417,The greeting cards the kids made were covered in glitter.,fill_13,center_embedding,,,1107628,32,rsvp,10,
3863,Pilot,4,,0.0-6.0-0.27,youName,,,Boniface,7623,"Coming home last night, Boniface pulled the wagon.",targ_16,nonreverse,,,1123296,33,rsvp,8,
3863,Pilot,3,,0.0-6.0-0.28,weName,,,Devon,19180,"Wanting good photos, Devon met the photographer in-person.",targ_24,symm,,,1148254,34,rsvp,8,
3863,Pilot,2,,0.0-6.0-0.29,weName,,,Cassidy,17624,"Feeling bad, Cassidy fed the tabby cat some food.",targ_05,reverse_bias,,,1176757,35,rsvp,9,
3863,Pilot,3,,0.0-6.0-0.30,filler,,,tuesdays,21937,"Vincent works on Tuesdays, and Summer does on Thursdays too.",fill_08,vp_ellip,,,1210672,36,rsvp,10,
3863,Pilot,1,,0.0-6.0-0.31,youName,,,jeremy,5091,"Reluctantly, Jeremy hugged the judge even though they were in court.",targ_18,symm,,,1225646,37,rsvp,10,
3863,Pilot,4,,0.0-6.0-0.32,filler,,,dusty,23889,While Jorge drove the dusty car veered into a ditch.,fill_05,garden_path,,,1254966,38,rsvp,10,
3863,Pilot,1,,0.0-6.0-0.33,filler,,,rusty,11497,The rusty pipes the plumber tried to repair burst.,fill_14,center_embedding,,,1277479,39,rsvp,9,
3863,Pilot,11,,0.0-6.0-0.34,filler,,,green,20511,The laptop the officer pulled out of the bag had a green cover.,fill_18,center_embedding,,,1308823,40,rsvp,13,
3863,Pilot,3,,0.0-6.0-0.35,weName,,,Daisy,11981,No one knew Daisy loved the puppy so much.,targ_20,symm,,,1331686,41,rsvp,9,
3863,Pilot,2,,0.0-6.0-0.36,weName,,,Bianca,22193,"This morning, Bianca flew the plane in an emergency.",targ_14,nonreverse,,,1377289,42,rsvp,9,
3863,Pilot,6,,0.0-6.0-0.37,filler,,,two,10701,"Next month, the players will have two weeks of dress rehearsals.",fill_20,temporal_words,,,1395581,43,rsvp,11,
3863,Pilot,2,,0.0-6.0-0.38,weName,,,Bethany,12688,Everyone knew Bethany hit the red ball that broke the window.,targ_07,reverse_bias,,,1415835,44,rsvp,11,
3863,Pilot,9,,0.0-6.0-0.39,filler,,,month,10964,"Grant vacuums weekly, and Joel usually does so every month.",fill_09,vp_ellip,,,1434592,45,rsvp,10,
3863,Pilot,5,,0.0-6.0-0.40,weName,,,Miguel,13892,"Yesterday afternoon, the dog bit Miguel on the leg.",targ_01,reverse_bias,,,1457895,46,rsvp,9,
3863,Pilot,10,,0.0-6.0-0.41,filler,,,motorcycle,16600,"After the weekend is over, Marisa can finally ride her motorcycle.",fill_23,temporal_words,,,1488953,47,rsvp,11,
3863,Pilot,5,,0.0-6.0-0.42,filler,,,cried,9890,While Kara bathed the baby cried.,fill_01,garden_path,,,1513855,48,rsvp,6,
3863,Pilot,1,,0.0-6.0-0.43,filler,,,today,29066,"Before today, Francisco had never considered running this red light.",fill_22,temporal_words,,,1550440,49,rsvp,10,
3863,Pilot,6,,0.0-6.0-0.44,weName,,,Alejandro,14800,People are going to dance whenever Alejandro plays music.,targ_12,nonreverse,,,1577639,50,rsvp,9,
3863,Pilot,2,,0.0-6.0-0.45,filler,,,mother,10453,While the mother calms down the children sit on the bed.,fill_06,garden_path,,,1596199,51,rsvp,11,
3863,Pilot,3,,0.0-6.0-0.46,youName,,,jack,3491,It was wild Jack won the race yesterday.,targ_10,nonreverse,,,1605960,52,rsvp,8,
3863,Pilot,12,,0.0-6.0-0.47,filler,,,influencer,12688,"The scandal about the actor was leaked, and the one about the influencer was too.",fill_12,vp_ellip,,,1624558,53,rsvp,15,
3863,Pilot,,demoSurvey,0.0-7.0,,,,"{'age': '60', 'enjoy': 'An average experiment', 'gender': 'Female', 'correct': 'Yes', 'payment': 'The payment was fair', 'comments': '', 'education': 'Hold a higher degree'}",42785,,,,,,1667346,54,survey-html-form,,
3863,Pilot,,,0.0-8.0,,,,,,,,,,True,1667350,55,fullscreen,,
3863,Pilot,,thanks,0.0-9.0,,,,0,1368,,,,Thank you for your time! Please click 'Continue' and then wait a moment until you're directed back to Prolific.<br><br>,,1668720,56,html-button-response,,
3860,Pilot,,irb,0.0-0.0,,,,0,3122,,,,"<div style=""max-width: 1000px; margin: 0 auto; text-align: left;""><h2 style=""text-align: center;"">Consent to Participate</h2><p>By completing this study, you are participating in research being performed by cognitive scientists in the Stanford University Department of Linguistics and the University of Southern California Department of Linguistics. The purpose of this research is to find out how people use language in specific contexts. You must be at least 18 years old to participate. There are neither specific benefits nor anticipated risks associated with participation in this study. Your participation in this study is completely voluntary and you can withdraw at any time by simply exiting the study. You may decline to answer any or all of the questions following the study. Choosing not to participate or withdrawing will result in no penalty. Your anonymity is assured; the researchers who have requested your participation will not receive any personal information about you, and any information you provide will not be shared in association with any personally identifying information.</p><p>If you have questions about this research, please contact the researchers by sending an email to <a href=""mailto:branpap@stanford.edu"" style=""color: blue;"">branpap@stanford.edu</a>. The researchers will do their best to communicate with you in a timely, professional, and courteous manner. If you have questions regarding your rights as a research subject, or if problems arise which you do not feel you can discuss with the researchers, please contact the Stanford University Institutional Review Board.</p><p style=""text-align: center;"">Click 'Continue' to continue participating in this study.</p></div>",,3126,0,html-button-response,,
3860,Pilot,,,0.0-1.0,,,,,1515,,,,,True,5646,1,fullscreen,,
3860,Pilot,,gameData,0.0-2.0,,"['Paula', 'Nick', 'Miles', 'Mark', 'Patrick', 'Aurora', 'Mia', 'alice', 'John', 'Newal', 'NIa', 'Steve']","[None, None, None, None, None, None, None, None, None, None, None, None]",,,,,,,,113943,2,madlibs,,
3860,Pilot,,instructions,0.0-3.0,,,,0,15730,,,,"<div style=""max-width: 1000px; margin: 0 auto; text-align: left;"">
    <h2 style=""text-align: center;"">Instructions</h2>
    <p>In this experiment, you will read a series of 48 sentences that appear one word at a time in the center of the screen. Each trial will begin with a black '+' in the middle. Focus on this '+' and continue watching as the words replace it. The words are presented quickly, and you will not be able to review the sentence after it has passed.</p>
    <p>After each sentence, you will be asked to fill in a missing word that best completes the sentence. Please read carefully and do your best to understand the meaning of each sentence.</p>
    <p>The experiment will take about 10-15 minutes to complete.</p>
    <p>When you are ready, press 'Begin' to start.</p>
  </div>",,129675,3,html-button-response,,
3860,Pilot,4,practice,0.0-4.0,,,,example,10437,This is a practice sentence to help you get used to the task.,,,,,146609,4,rsvp,,
3860,Pilot,,instructions,0.0-5.0,,,,0,3232,,,,"<div style=""max-width: 1000px; margin: 0 auto; text-align: left;"">
    <h2 style=""text-align: center;"">End of Practice</h2>
    <p>You have completed the practice trial. The main experiment will now begin. Remember to read each sentence carefully and fill in the missing word after each sentence.</p>
    <p>When you are ready, press 'Continue' to start the main experiment.</p>
  </div>",,149843,5,html-button-response,,
3860,Pilot,12,,0.0-6.0-0.0,filler,,,influencer ,7631,"The scandal about the actor was leaked, and the one about the influencer was too.",fill_12,vp_ellip,,,162285,6,rsvp,15,
3860,Pilot,10,,0.0-6.0-0.1,filler,,,Motorcycle ,13276,"After the weekend is over, Marisa can finally ride her motorcycle.",fill_23,temporal_words,,,179267,7,rsvp,11,
3860,Pilot,4,,0.0-6.0-0.2,youName,,,Steve,4962,"To win the game, Steve chose the player with the blue tee.",targ_23,symm,,,187850,8,rsvp,12,
3860,Pilot,2,,0.0-6.0-0.3,weName,,,Seth,4528,It was Seth who pursued the thief this morning.,targ_04,reverse_bias,,,195290,9,rsvp,9,
3860,Pilot,6,,0.0-6.0-0.4,weName,,,Aeahandro ,9875,People are going to dance whenever Alejandro plays music.,targ_12,nonreverse,,,208154,10,rsvp,9,
3860,Pilot,2,,0.0-6.0-0.5,weName,,,Katrina ,3197,"Earlier today, Karina treated the tall patient at the hospital.",targ_06,reverse_bias,,,214671,11,rsvp,10,
3860,Pilot,5,,0.0-6.0-0.6,weName,,,Casey,3045,"Even though it was dark, Casey saw the driver last night.",targ_19,symm,,,220888,12,rsvp,11,
3860,Pilot,2,,0.0-6.0-0.7,filler,,,Mother,2670,While the mother calms down the children sit on the bed.,fill_06,garden_path,,,226725,13,rsvp,11,
3860,Pilot,1,,0.0-6.0-0.8,filler,,,message ,6475,The message Nancy sent to her mom wasn't delivered.,fill_17,center_embedding,,,236102,14,rsvp,9,
3860,Pilot,3,,0.0-6.0-0.9,filler,,,Tuesdays ,55144,"Vincent works on Tuesdays, and Summer does on Thursdays too.",fill_08,vp_ellip,,,294357,15,rsvp,10,
3860,Pilot,3,,0.0-6.0-0.10,filler,,,two,4073,"The girl bought two stuffed animals, and the boy did too.",fill_10,vp_ellip,,,301710,16,rsvp,11,
3860,Pilot,4,,0.0-6.0-0.11,weName,,,Adrian ,4040,"To help with studying, Adrian quizzed the student.",targ_03,reverse_bias,,,308415,17,rsvp,8,
3860,Pilot,4,,0.0-6.0-0.12,youName,,,Nia,2220,"Coming home last night, Nia pulled the wagon.",targ_16,nonreverse,,,313214,18,rsvp,8,
3860,Pilot,4,,0.0-6.0-0.13,weName,,,Dessire ,4593,"To hide the gold, Desiree buried the treasure.",targ_15,nonreverse,,,320519,19,rsvp,8,
3860,Pilot,2,,0.0-6.0-0.14,youName,,,Newal ,5558,"Feeling bad, Newal fed the tabby cat some food.",targ_05,reverse_bias,,,329273,20,rsvp,9,
3860,Pilot,4,,0.0-6.0-0.15,youName,,,John,1947,"To meet the deadline, John reviewed the paper quickly.",targ_09,nonreverse,,,334012,21,rsvp,9,
3860,Pilot,4,,0.0-6.0-0.16,weName,,,Carly,2353,It was revealed that Carly typed the mysterious letter.,targ_13,nonreverse,,,339037,22,rsvp,9,
3860,Pilot,2,,0.0-6.0-0.17,weName,,,Brenda  ,5049,"Last week, Brenda accidentally kissed the neighbor at the party.",targ_17,symm,,,347045,23,rsvp,10,
3860,Pilot,3,,0.0-6.0-0.18,filler,,,cyoada ,36870,The squirrel the coyote chased found an acorn.,fill_15,center_embedding,,,386597,24,rsvp,8,
3860,Pilot,3,,0.0-6.0-0.19,youName,,,Alice,2286,No one knew Alice loved the puppy so much.,targ_20,symm,,,391812,25,rsvp,9,
3860,Pilot,4,,0.0-6.0-0.20,filler,,,deer,3021,While Ricardo hunted the deer ran away.,fill_02,garden_path,,,397656,26,rsvp,7,
3860,Pilot,6,,0.0-6.0-0.21,filler,,,two,3438,"Next month, the players will have two weeks of dress rehearsals.",fill_20,temporal_words,,,404109,27,rsvp,11,
3860,Pilot,1,,0.0-6.0-0.22,filler,,,greeting ,7500,The greeting cards the kids made were covered in glitter.,fill_13,center_embedding,,,427720,28,rsvp,10,
3860,Pilot,4,,0.0-6.0-0.23,filler,,,forgot,3147,The assistant Oscar trained forgot the list of coffee orders. ,fill_16,center_embedding,,,433939,29,rsvp,10,
3860,Pilot,4,,0.0-6.0-0.24,youName,,,Mia,1768,It was no secret Mia despised the baker.,targ_21,symm,,,438358,30,rsvp,8,
3860,Pilot,4,,0.0-6.0-0.25,youName,,,Aurora ,7617,It was rumored that Aurora ruined the food.,targ_02,reverse_bias,,,448678,31,rsvp,8,
3860,Pilot,1,,0.0-6.0-0.26,filler,,,today,2998,"Before today, Francisco had never considered running this red light.",fill_22,temporal_words,,,454717,32,rsvp,10,
3860,Pilot,4,,0.0-6.0-0.27,weName,,,cotlon ,6793,It was nice of Colton to thank the mean customer.,targ_22,symm,,,464293,33,rsvp,10,
3860,Pilot,11,,0.0-6.0-0.28,filler,,,green,4687,The laptop the officer pulled out of the bag had a green cover.,fill_18,center_embedding,,,472246,34,rsvp,13,
3860,Pilot,5,,0.0-6.0-0.29,youName,,,Patrick ,6563,"Yesterday afternoon, the dog bit Patrick on the leg.",targ_01,reverse_bias,,,481552,35,rsvp,9,
3860,Pilot,1,,0.0-6.0-0.30,filler,,,week,4397,"Last month, people argued where to build the new post office in the town.",fill_24,temporal_words,,,489396,36,rsvp,14,
3860,Pilot,5,,0.0-6.0-0.31,filler,,,cried,2860,While Kara bathed the baby cried.,fill_01,garden_path,,,494570,37,rsvp,6,
3860,Pilot,1,,0.0-6.0-0.32,filler,,,rumor,3023,"The rumor about Eduardo spread quickly, and the one about Malik did too.",fill_11,vp_ellip,,,500862,38,rsvp,13,
3860,Pilot,1,,0.0-6.0-0.33,filler,,,afternoon,10249,"Tomorrow afternoon, the soccer team will visit the history museum.",fill_19,temporal_words,,,513913,39,rsvp,10,
3860,Pilot,3,,0.0-6.0-0.34,weName,,,Devon ,4552,"Wanting good photos, Devon met the photographer in-person.",targ_24,symm,,,521044,40,rsvp,8,
3860,Pilot,4,,0.0-6.0-0.35,filler,,,fish,5835,While Alec orders the fish cooks in a pot.,fill_04,garden_path,,,529654,41,rsvp,9,
3860,Pilot,4,,0.0-6.0-0.36,filler,,,dusty ,8769,While Jorge drove the dusty car veered into a ditch.,fill_05,garden_path,,,541250,42,rsvp,10,
3860,Pilot,1,,0.0-6.0-0.37,filler,,,rusty,2492,The rusty pipes the plumber tried to repair burst.,fill_14,center_embedding,,,546583,43,rsvp,9,
3860,Pilot,2,,0.0-6.0-0.38,youName,,,Mark,2853,Everyone knew Mark hit the red ball that broke the window.,targ_07,reverse_bias,,,552432,44,rsvp,11,
3860,Pilot,3,,0.0-6.0-0.39,youName,,,Miles,2094,It was wild Miles won the race yesterday.,targ_10,nonreverse,,,557035,45,rsvp,8,
3860,Pilot,1,,0.0-6.0-0.40,youName,,,Nick,2155,"Reluctantly, Nick hugged the judge even though they were in court.",targ_18,symm,,,562129,46,rsvp,10,
3860,Pilot,8,,0.0-6.0-0.41,filler,,,sister,2833,"The neighbor goes out with friends, and his sister does too.",fill_07,vp_ellip,,,567914,47,rsvp,11,
3860,Pilot,2,,0.0-6.0-0.42,youName,,,Paula,3840,"This morning, Paula flew the plane in an emergency.",targ_14,nonreverse,,,574355,48,rsvp,9,
3860,Pilot,3,,0.0-6.0-0.43,weName,,,Jake,2040,Everyone laughed when Jake told the joke at recess.,targ_11,nonreverse,,,578965,49,rsvp,9,
3860,Pilot,9,,0.0-6.0-0.44,filler,,,weekend,7740,"Grant vacuums weekly, and Joel usually does so every month.",fill_09,vp_ellip,,,589485,50,rsvp,10,
3860,Pilot,4,,0.0-6.0-0.45,weName,,,Dominique ,8026,No one was surprised Dominique caught the fish.,targ_08,reverse_bias,,,599992,51,rsvp,8,
3860,Pilot,8,,0.0-6.0-0.46,filler,,,Poetry ,11554,"After next Friday, Adriana will prepare for the poetry contest.",fill_21,temporal_words,,,614461,52,rsvp,10,
3860,Pilot,9,,0.0-6.0-0.47,filler,,,desk,2294,While the student read the notes blew off the desk.,fill_03,garden_path,,,620438,53,rsvp,10,
3860,Pilot,,demoSurvey,0.0-7.0,,,,"{'age': '22', 'enjoy': 'An average experiment', 'gender': 'Female', 'correct': 'Yes', 'payment': 'The payment was fair', 'comments': 'No, I do not.', 'education': 'Some college'}",21321,,,,,,641763,54,survey-html-form,,
3860,Pilot,,,0.0-8.0,,,,,,,,,,True,641769,55,fullscreen,,
3860,Pilot,,thanks,0.0-9.0,,,,0,1173,,,,Thank you for your time! Please click 'Continue' and then wait a moment until you're directed back to Prolific.<br><br>,,642943,56,html-button-response,,
3856,Pilot,,irb,0.0-0.0,,,,0,9344,,,,"<div style=""max-width: 1000px; margin: 0 auto; text-align: left;""><h2 style=""text-align: center;"">Consent to Participate</h2><p>By completing this study, you are participating in research being performed by cognitive scientists in the Stanford University Department of Linguistics and the University of Southern California Department of Linguistics. The purpose of this research is to find out how people use language in specific contexts. You must be at least 18 years old to participate. There are neither specific benefits nor anticipated risks associated with participation in this study. Your participation in this study is completely voluntary and you can withdraw at any time by simply exiting the study. You may decline to answer any or all of the questions following the study. Choosing not to participate or withdrawing will result in no penalty. Your anonymity is assured; the researchers who have requested your participation will not receive any personal information about you, and any information you provide will not be shared in association with any personally identifying information.</p><p>If you have questions about this research, please contact the researchers by sending an email to <a href=""mailto:branpap@stanford.edu"" style=""color: blue;"">branpap@stanford.edu</a>. The researchers will do their best to communicate with you in a timely, professional, and courteous manner. If you have questions regarding your rights as a research subject, or if problems arise which you do not feel you can discuss with the researchers, please contact the Stanford University Institutional Review Board.</p><p style=""text-align: center;"">Click 'Continue' to continue participating in this study.</p></div>",,9346,0,html-button-response,,
3856,Pilot,,,0.0-1.0,,,,,1759,,,,,True,12108,1,fullscreen,,
3856,Pilot,,gameData,0.0-2.0,,"['Constance', 'Titus', 'Camille', 'Tristan', 'Angelica', 'Anastasia', 'Marissa', 'Abigail', 'Paolo', 'Giovanni', 'Cyrus', 'Benedict']","[None, None, None, None, None, None, None, None, None, None, None, None]",,,,,,,,146302,2,madlibs,,
3856,Pilot,,instructions,0.0-3.0,,,,0,13630,,,,"<div style=""max-width: 1000px; margin: 0 auto; text-align: left;"">
    <h2 style=""text-align: center;"">Instructions</h2>
    <p>In this experiment, you will read a series of 48 sentences that appear one word at a time in the center of the screen. Each trial will begin with a black '+' in the middle. Focus on this '+' and continue watching as the words replace it. The words are presented quickly, and you will not be able to review the sentence after it has passed.</p>
    <p>After each sentence, you will be asked to fill in a missing word that best completes the sentence. Please read carefully and do your best to understand the meaning of each sentence.</p>
    <p>The experiment will take about 10-15 minutes to complete.</p>
    <p>When you are ready, press 'Begin' to start.</p>
  </div>",,159933,3,html-button-response,,
3856,Pilot,4,practice,0.0-4.0,,,,meant,7275,This is a practice sentence to help you get used to the task.,,,,,176765,4,rsvp,,
3856,Pilot,,instructions,0.0-5.0,,,,0,2127,,,,"<div style=""max-width: 1000px; margin: 0 auto; text-align: left;"">
    <h2 style=""text-align: center;"">End of Practice</h2>
    <p>You have completed the practice trial. The main experiment will now begin. Remember to read each sentence carefully and fill in the missing word after each sentence.</p>
    <p>When you are ready, press 'Continue' to start the main experiment.</p>
  </div>",,178893,5,html-button-response,,
3856,Pilot,4,,0.0-6.0-0.0,youName,,,Benedict,4986,It was revealed that Benedict typed the mysterious letter.,targ_13,nonreverse,,,188365,6,rsvp,9,
3856,Pilot,3,,0.0-6.0-0.1,youName,,,Cyrus,6043,No one knew Cyrus loved the puppy so much.,targ_20,symm,,,198222,7,rsvp,9,
3856,Pilot,2,,0.0-6.0-0.2,weName,,,Bethany,4052,Everyone knew Bethany hit the red ball that broke the window.,targ_07,reverse_bias,,,206133,8,rsvp,11,
3856,Pilot,2,,0.0-6.0-0.3,weName,,,Karina,3680,"Earlier today, Karina treated the tall patient at the hospital.",targ_06,reverse_bias,,,213270,9,rsvp,10,
3856,Pilot,1,,0.0-6.0-0.4,weName,,,Gabriela,3466,"Reluctantly, Gabriela hugged the judge even though they were in court.",targ_18,symm,,,220550,10,rsvp,10,
3856,Pilot,4,,0.0-6.0-0.5,weName,,,Colton,3524,It was nice of Colton to thank the mean customer.,targ_22,symm,,,227462,11,rsvp,10,
3856,Pilot,6,,0.0-6.0-0.6,youName,,,Giovanni ,6611,People are going to dance whenever Giovanni plays music.,targ_12,nonreverse,,,237206,12,rsvp,9,
3856,Pilot,4,,0.0-6.0-0.7,youName,,,Paolo,3279,"Coming home last night, Paolo pulled the wagon.",targ_16,nonreverse,,,243478,13,rsvp,8,
3856,Pilot,8,,0.0-6.0-0.8,filler,,,dance,5593,"After next Friday, Adriana will prepare for the poetry contest.",fill_21,temporal_words,,,252559,14,rsvp,10,
3856,Pilot,4,,0.0-6.0-0.9,weName,,,Desiree,3645,"To hide the gold, Desiree buried the treasure.",targ_15,nonreverse,,,260278,15,rsvp,8,
3856,Pilot,2,,0.0-6.0-0.10,weName,,,Bianca,2765,"This morning, Bianca flew the plane in an emergency.",targ_14,nonreverse,,,266486,16,rsvp,9,
3856,Pilot,1,,0.0-6.0-0.11,filler,,,night,3719,"Last month, people argued where to build the new post office in the town.",fill_24,temporal_words,,,274095,17,rsvp,14,
3856,Pilot,6,,0.0-6.0-0.12,filler,,,two,3238,"Next month, the players will have two weeks of dress rehearsals.",fill_20,temporal_words,,,280927,18,rsvp,11,
3856,Pilot,1,,0.0-6.0-0.13,filler,,,afternoon,6165,"Tomorrow afternoon, the soccer team will visit the history museum.",fill_19,temporal_words,,,290575,19,rsvp,10,
3856,Pilot,4,,0.0-6.0-0.14,filler,,,lobsters,9650,While Alec orders the fish cooks in a pot.,fill_04,garden_path,,,303888,20,rsvp,9,
3856,Pilot,5,,0.0-6.0-0.15,youName,,,Abigail,3125,"Even though it was dark, Abigail saw the driver last night.",targ_19,symm,,,310792,21,rsvp,11,
3856,Pilot,5,,0.0-6.0-0.16,weName,,,Miguel,3579,"Yesterday afternoon, the dog bit Miguel on the leg.",targ_01,reverse_bias,,,317728,22,rsvp,9,
3856,Pilot,4,,0.0-6.0-0.17,youName,,,Marissa,3432,"To help with studying, Marissa quizzed the student.",targ_03,reverse_bias,,,324192,23,rsvp,8,
3856,Pilot,4,,0.0-6.0-0.18,filler,,,forgot,4125,The assistant Oscar trained forgot the list of coffee orders. ,fill_16,center_embedding,,,331752,24,rsvp,10,
3856,Pilot,2,,0.0-6.0-0.19,youName,,,Anastasia,3596,It was Anastasia who pursued the thief this morning.,targ_04,reverse_bias,,,338568,25,rsvp,9,
3856,Pilot,1,,0.0-6.0-0.20,filler,,,message,3028,The message Nancy sent to her mom wasn't delivered.,fill_17,center_embedding,,,344688,26,rsvp,9,
3856,Pilot,1,,0.0-6.0-0.21,filler,,,greeting,3250,The greeting cards the kids made were covered in glitter.,fill_13,center_embedding,,,351152,27,rsvp,10,
3856,Pilot,5,,0.0-6.0-0.22,filler,,,cried,7757,While Kara bathed the baby cried.,fill_01,garden_path,,,361480,28,rsvp,6,
3856,Pilot,12,,0.0-6.0-0.23,filler,,,influencer,6543,"The scandal about the actor was leaked, and the one about the influencer was too.",fill_12,vp_ellip,,,372137,29,rsvp,15,
3856,Pilot,4,,0.0-6.0-0.24,filler,,,deer,2549,While Ricardo hunted the deer ran away.,fill_02,garden_path,,,377457,30,rsvp,7,
3856,Pilot,3,,0.0-6.0-0.25,filler,,,coyote,3407,The squirrel the coyote chased found an acorn.,fill_15,center_embedding,,,383825,31,rsvp,8,
3856,Pilot,4,,0.0-6.0-0.26,youName,,,Angelica,5831,"To meet the deadline, Angelica reviewed the paper quickly.",targ_09,nonreverse,,,392833,32,rsvp,9,
3856,Pilot,11,,0.0-6.0-0.27,filler,,,green,3558,The laptop the officer pulled out of the bag had a green cover.,fill_18,center_embedding,,,400402,33,rsvp,13,
3856,Pilot,4,,0.0-6.0-0.28,weName,,,Dominique,3891,No one was surprised Dominique caught the fish.,targ_08,reverse_bias,,,407170,34,rsvp,8,
3856,Pilot,8,,0.0-6.0-0.29,filler,,,sister,3509,"The neighbor goes out with friends, and his sister does too.",fill_07,vp_ellip,,,414002,35,rsvp,11,
3856,Pilot,3,,0.0-6.0-0.30,filler,,,two,2837,"The girl bought two stuffed animals, and the boy did too.",fill_10,vp_ellip,,,420506,36,rsvp,11,
3856,Pilot,1,,0.0-6.0-0.31,filler,,,rumor,3250,"The rumor about Eduardo spread quickly, and the one about Malik did too.",fill_11,vp_ellip,,,427498,37,rsvp,13,
3856,Pilot,3,,0.0-6.0-0.32,weName,,,Shane,5300,It was wild Shane won the race yesterday.,targ_10,nonreverse,,,435986,38,rsvp,8,
3856,Pilot,4,,0.0-6.0-0.33,weName,,,Angelo,2896,It was no secret Angel despised the baker.,targ_21,symm,,,442034,39,rsvp,8,
3856,Pilot,4,,0.0-6.0-0.34,filler,,,truc,6788,While Jorge drove the dusty car veered into a ditch.,fill_05,garden_path,,,452122,40,rsvp,10,
3856,Pilot,3,,0.0-6.0-0.35,weName,,,Jake,2514,Everyone laughed when Jake told the joke at recess.,targ_11,nonreverse,,,458643,41,rsvp,9,
3856,Pilot,2,,0.0-6.0-0.36,weName,,,Brenda,5765,"Last week, Brenda accidentally kissed the neighbor at the party.",targ_17,symm,,,467707,42,rsvp,10,
3856,Pilot,9,,0.0-6.0-0.37,filler,,,desk,2908,While the student read the notes blew off the desk.,fill_03,garden_path,,,474083,43,rsvp,10,
3856,Pilot,3,,0.0-6.0-0.38,filler,,,Sundays,5063,"Vincent works on Tuesdays, and Summer does on Thursdays too.",fill_08,vp_ellip,,,482379,44,rsvp,10,
3856,Pilot,2,,0.0-6.0-0.39,youName,,,Tristan,3284,"Feeling bad, Tristan fed the tabby cat some food.",targ_05,reverse_bias,,,488956,45,rsvp,9,
3856,Pilot,1,,0.0-6.0-0.40,filler,,,today,3345,"Before today, Francisco had never considered running this red light.",fill_22,temporal_words,,,495843,46,rsvp,10,
3856,Pilot,4,,0.0-6.0-0.41,youName,,,Camille,3565,It was rumored that Camille ruined the food.,targ_02,reverse_bias,,,502588,47,rsvp,8,
3856,Pilot,2,,0.0-6.0-0.42,filler,,,mother,2682,While the mother calms down the children sit on the bed.,fill_06,garden_path,,,508772,48,rsvp,11,
3856,Pilot,10,,0.0-6.0-0.43,filler,,,motorcycle,4254,"After the weekend is over, Marisa can finally ride her motorcycle.",fill_23,temporal_words,,,516476,49,rsvp,11,
3856,Pilot,4,,0.0-6.0-0.44,youName,,,Titus,2975,"To win the game, Titus chose the player with the blue tee.",targ_23,symm,,,523220,50,rsvp,12,
3856,Pilot,3,,0.0-6.0-0.45,youName,,,Constance,3410,"Wanting good photos, Constance met the photographer in-person.",targ_24,symm,,,529636,51,rsvp,8,
3856,Pilot,1,,0.0-6.0-0.46,filler,,,rusty,2813,The rusty pipes the plumber tried to repair burst.,fill_14,center_embedding,,,535445,52,rsvp,9,
3856,Pilot,9,,0.0-6.0-0.47,filler,,,month,3442,"Grant vacuums weekly, and Joel usually does so every month.",fill_09,vp_ellip,,,541973,53,rsvp,10,
3856,Pilot,,demoSurvey,0.0-7.0,,,,"{'age': '49', 'enjoy': 'Better than the average experiment', 'gender': 'Female', 'correct': 'Yes', 'payment': 'The payment was fair', 'comments': 'A good cognitive exercise, thank you for letting me participate', 'education': 'Hold a higher degree'}",34096,,,,,,576070,54,survey-html-form,,
3856,Pilot,,,0.0-8.0,,,,,,,,,,True,576071,55,fullscreen,,
3856,Pilot,,thanks,0.0-9.0,,,,0,3462,,,,Thank you for your time! Please click 'Continue' and then wait a moment until you're directed back to Prolific.<br><br>,,579533,56,html-button-response,,
3858,Pilot,,irb,0.0-0.0,,,,0,2733,,,,"<div style=""max-width: 1000px; margin: 0 auto; text-align: left;""><h2 style=""text-align: center;"">Consent to Participate</h2><p>By completing this study, you are participating in research being performed by cognitive scientists in the Stanford University Department of Linguistics and the University of Southern California Department of Linguistics. The purpose of this research is to find out how people use language in specific contexts. You must be at least 18 years old to participate. There are neither specific benefits nor anticipated risks associated with participation in this study. Your participation in this study is completely voluntary and you can withdraw at any time by simply exiting the study. You may decline to answer any or all of the questions following the study. Choosing not to participate or withdrawing will result in no penalty. Your anonymity is assured; the researchers who have requested your participation will not receive any personal information about you, and any information you provide will not be shared in association with any personally identifying information.</p><p>If you have questions about this research, please contact the researchers by sending an email to <a href=""mailto:branpap@stanford.edu"" style=""color: blue;"">branpap@stanford.edu</a>. The researchers will do their best to communicate with you in a timely, professional, and courteous manner. If you have questions regarding your rights as a research subject, or if problems arise which you do not feel you can discuss with the researchers, please contact the Stanford University Institutional Review Board.</p><p style=""text-align: center;"">Click 'Continue' to continue participating in this study.</p></div>",,2735,0,html-button-response,,
3858,Pilot,,,0.0-1.0,,,,,1935,,,,,True,5689,1,fullscreen,,
3858,Pilot,,gameData,0.0-2.0,,"['Joe', 'mary', 'jake', 'louis', 'jermaine', 'mike', 'will', 'stacy', 'matt', 'rebecca', 'jane', 'sally']","[None, None, None, None, None, None, None, None, None, None, None, None]",,,,,,,,62701,2,madlibs,,
3858,Pilot,,instructions,0.0-3.0,,,,0,14947,,,,"<div style=""max-width: 1000px; margin: 0 auto; text-align: left;"">
    <h2 style=""text-align: center;"">Instructions</h2>
    <p>In this experiment, you will read a series of 48 sentences that appear one word at a time in the center of the screen. Each trial will begin with a black '+' in the middle. Focus on this '+' and continue watching as the words replace it. The words are presented quickly, and you will not be able to review the sentence after it has passed.</p>
    <p>After each sentence, you will be asked to fill in a missing word that best completes the sentence. Please read carefully and do your best to understand the meaning of each sentence.</p>
    <p>The experiment will take about 10-15 minutes to complete.</p>
    <p>When you are ready, press 'Begin' to start.</p>
  </div>",,77650,3,html-button-response,,
3858,Pilot,4,practice,0.0-4.0,,,,sentence ,10658,This is a practice sentence to help you get used to the task.,,,,,94164,4,rsvp,,
3858,Pilot,,instructions,0.0-5.0,,,,0,4496,,,,"<div style=""max-width: 1000px; margin: 0 auto; text-align: left;"">
    <h2 style=""text-align: center;"">End of Practice</h2>
    <p>You have completed the practice trial. The main experiment will now begin. Remember to read each sentence carefully and fill in the missing word after each sentence.</p>
    <p>When you are ready, press 'Continue' to start the main experiment.</p>
  </div>",,98661,5,html-button-response,,
3858,Pilot,4,,0.0-6.0-0.0,weName,,,Adrian,5897,"To help with studying, Adrian quizzed the student.",targ_03,reverse_bias,,,108908,6,rsvp,8,
3858,Pilot,1,,0.0-6.0-0.1,filler,,,afternoon,5490,"Tomorrow afternoon, the soccer team will visit the history museum.",fill_19,temporal_words,,,118274,7,rsvp,10,
3858,Pilot,2,,0.0-6.0-0.2,youName,,,sally,3031,Everyone knew Sally hit the red ball that broke the window.,targ_07,reverse_bias,,,125144,8,rsvp,11,
3858,Pilot,2,,0.0-6.0-0.3,weName,,,bianca,3744,"This morning, Bianca flew the plane in an emergency.",targ_14,nonreverse,,,132352,9,rsvp,9,
3858,Pilot,4,,0.0-6.0-0.4,youName,,,jane,2785,"To meet the deadline, Jane reviewed the paper quickly.",targ_09,nonreverse,,,138646,10,rsvp,9,
3858,Pilot,11,,0.0-6.0-0.5,filler,,,blue,4875,The laptop the officer pulled out of the bag had a green cover.,fill_18,center_embedding,,,147342,11,rsvp,13,
3858,Pilot,6,,0.0-6.0-0.6,filler,,,two,3148,"Next month, the players will have two weeks of dress rehearsals.",fill_20,temporal_words,,,154235,12,rsvp,11,
3858,Pilot,1,,0.0-6.0-0.7,filler,,,rusty,5905,The rusty pipes the plumber tried to repair burst.,fill_14,center_embedding,,,163342,13,rsvp,9,
3858,Pilot,1,,0.0-6.0-0.8,filler,,,ben,10438,"Before today, Francisco had never considered running this red light.",fill_22,temporal_words,,,177194,14,rsvp,10,
3858,Pilot,8,,0.0-6.0-0.9,filler,,,sister,3673,"The neighbor goes out with friends, and his sister does too.",fill_07,vp_ellip,,,184548,15,rsvp,11,
3858,Pilot,12,,0.0-6.0-0.10,filler,,,influencer,4486,"The scandal about the actor was leaked, and the one about the influencer was too.",fill_12,vp_ellip,,,192981,16,rsvp,15,
3858,Pilot,4,,0.0-6.0-0.11,youName,,,rebecca,3234,It was nice of Rebecca to thank the mean customer.,targ_22,symm,,,199549,17,rsvp,10,
3858,Pilot,3,,0.0-6.0-0.12,weName,,,devon,2905,"Wanting good photos, Devon met the photographer in-person.",targ_24,symm,,,205541,18,rsvp,8,
3858,Pilot,9,,0.0-6.0-0.13,filler,,,desk,3235,While the student read the notes blew off the desk.,fill_03,garden_path,,,211858,19,rsvp,10,
3858,Pilot,4,,0.0-6.0-0.14,youName,,,matt,3152,"To win the game, Matt chose the player with the blue tee.",targ_23,symm,,,218293,20,rsvp,12,
3858,Pilot,4,,0.0-6.0-0.15,weName,,,dominque,6127,No one was surprised Dominique caught the fish.,targ_08,reverse_bias,,,227067,21,rsvp,8,
3858,Pilot,5,,0.0-6.0-0.16,weName,,,miquel,5485,"Yesterday afternoon, the dog bit Miguel on the leg.",targ_01,reverse_bias,,,235580,22,rsvp,9,
3858,Pilot,4,,0.0-6.0-0.17,filler,,,fish,6232,While Alec orders the fish cooks in a pot.,fill_04,garden_path,,,244774,23,rsvp,9,
3858,Pilot,9,,0.0-6.0-0.18,filler,,,day,4416,"Grant vacuums weekly, and Joel usually does so every month.",fill_09,vp_ellip,,,252146,24,rsvp,10,
3858,Pilot,3,,0.0-6.0-0.19,weName,,,daisy,3866,No one knew Daisy loved the puppy so much.,targ_20,symm,,,258852,25,rsvp,9,
3858,Pilot,4,,0.0-6.0-0.20,filler,,,took,9906,The assistant Oscar trained forgot the list of coffee orders. ,fill_16,center_embedding,,,271881,26,rsvp,10,
3858,Pilot,4,,0.0-6.0-0.21,weName,,,carly,2462,It was revealed that Carly typed the mysterious letter.,targ_13,nonreverse,,,277314,27,rsvp,9,
3858,Pilot,3,,0.0-6.0-0.22,filler,,,tuesday,6216,"Vincent works on Tuesdays, and Summer does on Thursdays too.",fill_08,vp_ellip,,,286537,28,rsvp,10,
3858,Pilot,2,,0.0-6.0-0.23,youName,,,stacy,3433,"Earlier today, Stacy treated the tall patient at the hospital.",targ_06,reverse_bias,,,292918,29,rsvp,10,
3858,Pilot,3,,0.0-6.0-0.24,youName,,,will,1997,It was wild Will won the race yesterday.,targ_10,nonreverse,,,297439,30,rsvp,8,
3858,Pilot,4,,0.0-6.0-0.25,weName,,,dersire,2590,"To hide the gold, Desiree buried the treasure.",targ_15,nonreverse,,,302770,31,rsvp,8,
3858,Pilot,4,,0.0-6.0-0.26,filler,,,deer,3993,While Ricardo hunted the deer ran away.,fill_02,garden_path,,,309298,32,rsvp,7,
3858,Pilot,1,,0.0-6.0-0.27,filler,,,month,2927,"Last month, people argued where to build the new post office in the town.",fill_24,temporal_words,,,315786,33,rsvp,14,
3858,Pilot,2,,0.0-6.0-0.28,youName,,,mike,4454,"Feeling bad, Mike fed the tabby cat some food.",targ_05,reverse_bias,,,323419,34,rsvp,9,
3858,Pilot,1,,0.0-6.0-0.29,filler,,,greeting,4806,The greeting cards the kids made were covered in glitter.,fill_13,center_embedding,,,331286,35,rsvp,10,
3858,Pilot,3,,0.0-6.0-0.30,filler,,,two,3987,"The girl bought two stuffed animals, and the boy did too.",fill_10,vp_ellip,,,339587,36,rsvp,11,
3858,Pilot,2,,0.0-6.0-0.31,weName,,,brenda,2929,"Last week, Brenda accidentally kissed the neighbor at the party.",targ_17,symm,,,345400,37,rsvp,10,
3858,Pilot,10,,0.0-6.0-0.32,filler,,,bike,6410,"After the weekend is over, Marisa can finally ride her motorcycle.",fill_23,temporal_words,,,354879,38,rsvp,11,
3858,Pilot,1,,0.0-6.0-0.33,filler,,,rumor,4017,"The rumor about Eduardo spread quickly, and the one about Malik did too.",fill_11,vp_ellip,,,362402,39,rsvp,13,
3858,Pilot,1,,0.0-6.0-0.34,filler,,,message,4825,The message Nancy sent to her mom wasn't delivered.,fill_17,center_embedding,,,369974,40,rsvp,9,
3858,Pilot,4,,0.0-6.0-0.35,weName,,,chase,2833,It was rumored that Chase ruined the food.,targ_02,reverse_bias,,,375272,41,rsvp,8,
3858,Pilot,2,,0.0-6.0-0.36,filler,,,mother,3527,While the mother calms down the children sit on the bed.,fill_06,garden_path,,,381786,42,rsvp,11,
3858,Pilot,8,,0.0-6.0-0.37,filler,,,poetry,10694,"After next Friday, Adriana will prepare for the poetry contest.",fill_21,temporal_words,,,395446,43,rsvp,10,
3858,Pilot,3,,0.0-6.0-0.38,filler,,,lion,10194,The squirrel the coyote chased found an acorn.,fill_15,center_embedding,,,410549,44,rsvp,8,
3858,Pilot,1,,0.0-6.0-0.39,youName,,,jermaine,5294,"Reluctantly, Jermaine hugged the judge even though they were in court.",targ_18,symm,,,419208,45,rsvp,10,
3858,Pilot,3,,0.0-6.0-0.40,youName,,,louis,3494,Everyone laughed when Louis told the joke at recess.,targ_11,nonreverse,,,425644,46,rsvp,9,
3858,Pilot,5,,0.0-6.0-0.41,weName,,,casey,2643,"Even though it was dark, Casey saw the driver last night.",targ_19,symm,,,431704,47,rsvp,11,
3858,Pilot,4,,0.0-6.0-0.42,youName,,,jake,3006,It was no secret Jake despised the baker.,targ_21,symm,,,437317,48,rsvp,8,
3858,Pilot,4,,0.0-6.0-0.43,filler,,,blakc,19871,While Jorge drove the dusty car veered into a ditch.,fill_05,garden_path,,,460481,49,rsvp,10,
3858,Pilot,4,,0.0-6.0-0.44,weName,,,kendra,3051,"Coming home last night, Kendra pulled the wagon.",targ_16,nonreverse,,,466331,50,rsvp,8,
3858,Pilot,2,,0.0-6.0-0.45,youName,,,mary,2379,It was Mary who pursued the thief this morning.,targ_04,reverse_bias,,,471762,51,rsvp,9,
3858,Pilot,6,,0.0-6.0-0.46,youName,,,joe,4567,People are going to dance whenever Joe plays music.,targ_12,nonreverse,,,479065,52,rsvp,9,
3858,Pilot,5,,0.0-6.0-0.47,filler,,,elephant,4300,While Kara bathed the baby cried.,fill_01,garden_path,,,485524,53,rsvp,6,
3858,Pilot,,demoSurvey,0.0-7.0,,,,"{'age': '50', 'enjoy': 'An average experiment', 'gender': 'Male', 'correct': 'Yes', 'payment': 'The payment was fair', 'comments': 'thanks...good luck ', 'education': 'Graduated high school'}",24132,,,,,,509658,54,survey-html-form,,
3858,Pilot,,,0.0-8.0,,,,,,,,,,True,509671,55,fullscreen,,
3858,Pilot,,thanks,0.0-9.0,,,,0,1388,,,,Thank you for your time! Please click 'Continue' and then wait a moment until you're directed back to Prolific.<br><br>,,511059,56,html-button-response,,
3865,Pilot,,irb,0.0-0.0,,,,0,3201,,,,"<div style=""max-width: 1000px; margin: 0 auto; text-align: left;""><h2 style=""text-align: center;"">Consent to Participate</h2><p>By completing this study, you are participating in research being performed by cognitive scientists in the Stanford University Department of Linguistics and the University of Southern California Department of Linguistics. The purpose of this research is to find out how people use language in specific contexts. You must be at least 18 years old to participate. There are neither specific benefits nor anticipated risks associated with participation in this study. Your participation in this study is completely voluntary and you can withdraw at any time by simply exiting the study. You may decline to answer any or all of the questions following the study. Choosing not to participate or withdrawing will result in no penalty. Your anonymity is assured; the researchers who have requested your participation will not receive any personal information about you, and any information you provide will not be shared in association with any personally identifying information.</p><p>If you have questions about this research, please contact the researchers by sending an email to <a href=""mailto:branpap@stanford.edu"" style=""color: blue;"">branpap@stanford.edu</a>. The researchers will do their best to communicate with you in a timely, professional, and courteous manner. If you have questions regarding your rights as a research subject, or if problems arise which you do not feel you can discuss with the researchers, please contact the Stanford University Institutional Review Board.</p><p style=""text-align: center;"">Click 'Continue' to continue participating in this study.</p></div>",,3221,0,html-button-response,,
3865,Pilot,,,0.0-1.0,,,,,1670,,,,,True,5907,1,fullscreen,,
3865,Pilot,,gameData,0.0-2.0,,"['larry', 'tim', 'matt', 'mark', 'fred', 'jack', 'marie', 'linda', 'roger', 'frank', 'barry', 'scott']","[None, None, None, None, None, None, None, None, None, None, None, None]",,,,,,,,112682,2,madlibs,,
3865,Pilot,,instructions,0.0-3.0,,,,0,19540,,,,"<div style=""max-width: 1000px; margin: 0 auto; text-align: left;"">
    <h2 style=""text-align: center;"">Instructions</h2>
    <p>In this experiment, you will read a series of 48 sentences that appear one word at a time in the center of the screen. Each trial will begin with a black '+' in the middle. Focus on this '+' and continue watching as the words replace it. The words are presented quickly, and you will not be able to review the sentence after it has passed.</p>
    <p>After each sentence, you will be asked to fill in a missing word that best completes the sentence. Please read carefully and do your best to understand the meaning of each sentence.</p>
    <p>The experiment will take about 10-15 minutes to complete.</p>
    <p>When you are ready, press 'Begin' to start.</p>
  </div>",,132228,3,html-button-response,,
3865,Pilot,4,practice,0.0-4.0,,,,sentence,30877,This is a practice sentence to help you get used to the task.,,,,,169700,4,rsvp,,
3865,Pilot,,instructions,0.0-5.0,,,,0,3694,,,,"<div style=""max-width: 1000px; margin: 0 auto; text-align: left;"">
    <h2 style=""text-align: center;"">End of Practice</h2>
    <p>You have completed the practice trial. The main experiment will now begin. Remember to read each sentence carefully and fill in the missing word after each sentence.</p>
    <p>When you are ready, press 'Continue' to start the main experiment.</p>
  </div>",,173396,5,html-button-response,,
3865,Pilot,1,,0.0-6.0-0.0,filler,,,message,11088,The message Nancy sent to her mom wasn't delivered.,fill_17,center_embedding,,,189364,6,rsvp,9,
3865,Pilot,12,,0.0-6.0-0.1,filler,,,influencer,13354,"The scandal about the actor was leaked, and the one about the influencer was too.",fill_12,vp_ellip,,,208234,7,rsvp,15,
3865,Pilot,6,,0.0-6.0-0.2,filler,,,two,8714,"Next month, the players will have two weeks of dress rehearsals.",fill_20,temporal_words,,,221863,8,rsvp,11,
3865,Pilot,4,,0.0-6.0-0.3,filler,,,food,17036,While Alec orders the fish cooks in a pot.,fill_04,garden_path,,,243252,9,rsvp,9,
3865,Pilot,2,,0.0-6.0-0.4,weName,,,i,26300,"Last week, Brenda accidentally kissed the neighbor at the party.",targ_17,symm,,,274104,10,rsvp,10,
3865,Pilot,3,,0.0-6.0-0.5,youName,,,scott,8195,"Wanting good photos, Scott met the photographer in-person.",targ_24,symm,,,288562,11,rsvp,8,
3865,Pilot,3,,0.0-6.0-0.6,filler,,,coyote,8433,The squirrel the coyote chased found an acorn.,fill_15,center_embedding,,,300721,12,rsvp,8,
3865,Pilot,4,,0.0-6.0-0.7,youName,,,barry,5913,"To help with studying, Barry quizzed the student.",targ_03,reverse_bias,,,310407,13,rsvp,8,
3865,Pilot,9,,0.0-6.0-0.8,filler,,,week,8808,"Grant vacuums weekly, and Joel usually does so every month.",fill_09,vp_ellip,,,322366,14,rsvp,10,
3865,Pilot,4,,0.0-6.0-0.9,filler,,,rusty,8745,While Jorge drove the dusty car veered into a ditch.,fill_05,garden_path,,,335150,15,rsvp,10,
3865,Pilot,4,,0.0-6.0-0.10,weName,,,carly,7664,It was revealed that Carly typed the mysterious letter.,targ_13,nonreverse,,,346017,16,rsvp,9,
3865,Pilot,3,,0.0-6.0-0.11,youName,,,frank,7488,No one knew Frank loved the puppy so much.,targ_20,symm,,,356804,17,rsvp,9,
3865,Pilot,10,,0.0-6.0-0.12,filler,,,motorcycle ,11996,"After the weekend is over, Marisa can finally ride her motorcycle.",fill_23,temporal_words,,,372645,18,rsvp,11,
3865,Pilot,11,,0.0-6.0-0.13,filler,,,green,7521,The laptop the officer pulled out of the bag had a green cover.,fill_18,center_embedding,,,384167,19,rsvp,13,
3865,Pilot,4,,0.0-6.0-0.14,weName,,,spencer,7357,"To win the game, Spencer chose the player with the blue tee.",targ_23,symm,,,395208,20,rsvp,12,
3865,Pilot,3,,0.0-6.0-0.15,filler,,,two,6173,"The girl bought two stuffed animals, and the boy did too.",fill_10,vp_ellip,,,404906,21,rsvp,11,
3865,Pilot,1,,0.0-6.0-0.16,filler,,,afternoon,7562,"Tomorrow afternoon, the soccer team will visit the history museum.",fill_19,temporal_words,,,415734,22,rsvp,10,
3865,Pilot,2,,0.0-6.0-0.17,youName,,,roger,7978,Everyone knew Roger hit the red ball that broke the window.,targ_07,reverse_bias,,,427283,23,rsvp,11,
3865,Pilot,2,,0.0-6.0-0.18,youName,,,linda,8802,"Earlier today, Linda treated the tall patient at the hospital.",targ_06,reverse_bias,,,439537,24,rsvp,10,
3865,Pilot,1,,0.0-6.0-0.19,youName,,,marie,9574,"Reluctantly, Marie hugged the judge even though they were in court.",targ_18,symm,,,453172,25,rsvp,10,
3865,Pilot,1,,0.0-6.0-0.20,filler,,,rumor,7774,"The rumor about Eduardo spread quickly, and the one about Malik did too.",fill_11,vp_ellip,,,473629,26,rsvp,13,
3865,Pilot,3,,0.0-6.0-0.21,filler,,,tuesdays,8468,"Vincent works on Tuesdays, and Summer does on Thursdays too.",fill_08,vp_ellip,,,485822,27,rsvp,10,
3865,Pilot,8,,0.0-6.0-0.22,filler,,,spelling,9674,"After next Friday, Adriana will prepare for the poetry contest.",fill_21,temporal_words,,,499384,28,rsvp,10,
3865,Pilot,4,,0.0-6.0-0.23,filler,,,a,7515,The assistant Oscar trained forgot the list of coffee orders. ,fill_16,center_embedding,,,511902,29,rsvp,10,
3865,Pilot,8,,0.0-6.0-0.24,filler,,,sister,6932,"The neighbor goes out with friends, and his sister does too.",fill_07,vp_ellip,,,523074,30,rsvp,11,
3865,Pilot,5,,0.0-6.0-0.25,weName,,,migul,5794,"Yesterday afternoon, the dog bit Miguel on the leg.",targ_01,reverse_bias,,,532704,31,rsvp,9,
3865,Pilot,3,,0.0-6.0-0.26,youName,,,jack,8182,Everyone laughed when Jack told the joke at recess.,targ_11,nonreverse,,,545256,32,rsvp,9,
3865,Pilot,4,,0.0-6.0-0.27,youName,,,fred,6672,It was nice of Fred to thank the mean customer.,targ_22,symm,,,555035,33,rsvp,10,
3865,Pilot,5,,0.0-6.0-0.28,weName,,,casey,4875,"Even though it was dark, Casey saw the driver last night.",targ_19,symm,,,564475,34,rsvp,11,
3865,Pilot,1,,0.0-6.0-0.29,filler,,,rusty,5974,The rusty pipes the plumber tried to repair burst.,fill_14,center_embedding,,,573746,35,rsvp,9,
3865,Pilot,4,,0.0-6.0-0.30,weName,,,chase,4375,It was rumored that Chase ruined the food.,targ_02,reverse_bias,,,582301,36,rsvp,8,
3865,Pilot,4,,0.0-6.0-0.31,filler,,,deer,4360,While Ricardo hunted the deer ran away.,fill_02,garden_path,,,589820,37,rsvp,7,
3865,Pilot,1,,0.0-6.0-0.32,filler,,,today,4809,"Before today, Francisco had never considered running this red light.",fill_22,temporal_words,,,597963,38,rsvp,10,
3865,Pilot,4,,0.0-6.0-0.33,youName,,,mark,6087,"To hide the gold, Mark buried the treasure.",targ_15,nonreverse,,,607068,39,rsvp,8,
3865,Pilot,5,,0.0-6.0-0.34,filler,,,cried,6386,While Kara bathed the baby cried.,fill_01,garden_path,,,615878,40,rsvp,6,
3865,Pilot,2,,0.0-6.0-0.35,weName,,,cassidy,9526,"Feeling bad, Cassidy fed the tabby cat some food.",targ_05,reverse_bias,,,628091,41,rsvp,9,
3865,Pilot,1,,0.0-6.0-0.36,filler,,,greeting,7662,The greeting cards the kids made were covered in glitter.,fill_13,center_embedding,,,639042,42,rsvp,10,
3865,Pilot,4,,0.0-6.0-0.37,weName,,,brett,9478,"To meet the deadline, Brett reviewed the paper quickly.",targ_09,nonreverse,,,651665,43,rsvp,9,
3865,Pilot,6,,0.0-6.0-0.38,weName,,,aleandro,14649,People are going to dance whenever Alejandro plays music.,targ_12,nonreverse,,,669731,44,rsvp,9,
3865,Pilot,3,,0.0-6.0-0.39,weName,,,tim,14077,It was wild Shane won the race yesterday.,targ_10,nonreverse,,,686930,45,rsvp,8,
3865,Pilot,4,,0.0-6.0-0.40,youName,,,matt,5097,"Coming home last night, Matt pulled the wagon.",targ_16,nonreverse,,,695125,46,rsvp,8,
3865,Pilot,2,,0.0-6.0-0.41,filler,,,mother,6617,While the mother calms down the children sit on the bed.,fill_06,garden_path,,,707519,47,rsvp,11,
3865,Pilot,2,,0.0-6.0-0.42,weName,,,seth,5675,It was Seth who pursued the thief this morning.,targ_04,reverse_bias,,,717258,48,rsvp,9,
3865,Pilot,4,,0.0-6.0-0.43,youName,,,tim,3703,No one was surprised Tim caught the fish.,targ_08,reverse_bias,,,723979,49,rsvp,8,
3865,Pilot,2,,0.0-6.0-0.44,youName,,,larry,5605,"This morning, Larry flew the plane in an emergency.",targ_14,nonreverse,,,732485,50,rsvp,9,
3865,Pilot,9,,0.0-6.0-0.45,filler,,,table,17924,While the student read the notes blew off the desk.,fill_03,garden_path,,,753828,51,rsvp,10,
3865,Pilot,1,,0.0-6.0-0.46,filler,,,month,13329,"Last month, people argued where to build the new post office in the town.",fill_24,temporal_words,,,771767,52,rsvp,14,
3865,Pilot,4,,0.0-6.0-0.47,weName,,,angel,7945,It was no secret Angel despised the baker.,targ_21,symm,,,782719,53,rsvp,8,
